rt,key_press,trial_type,trial_index,time_elapsed,internal_node_id,subject,text,block_duration,timing_post_trial,trial_id,view_history,stimulus,possible_responses,stim_duration,exp_stage,stim_place,stim_id,condition,correct,correct_response,responses,exp_id,feedback_duration,stim_color,stim_word,credit_var22375,13,text,0,22377,0.0-0.0,1033ca98-d7f6-4c03-a02f-77aa08858248,,,,,,,,,,,,,,,,,,,,1292,13,poldrack-text,389,457152,0.0-388.0-0.0,1033ca98-d7f6-4c03-a02f-77aa08858248,<div class = centerbox><p class = center-block-text>Done with instructions. Press <strong>enter</strong> to continue.</p></div>,1292,0,instruction,,,,,,,,,,,,,,,,44867,,poldrack-instructions,390,502019,0.0-388.0-1.0,1033ca98-d7f6-4c03-a02f-77aa08858248,,,,instruction,"[{""page_index"":0,""viewing_time"":44866}]",,,,,,,,,,,,,,,7686,13,poldrack-text,391,510714,0.0-389.0,1033ca98-d7f6-4c03-a02f-77aa08858248,"<div class = centerbox><p class = block-text>We will start with a few practice trials. Remember, press the key corresponding to the <strong>ink</strong> color of the word: ""r"" for words colored red, ""b"" for words colored blue, and ""g"" for words colored green.</p><p class = block-text>Press <strong>enter</strong> to begin practice.</p></div>",7686,1000,practice_intro,,,,,,,,,,,,,,,,-1,-1,poldrack-single-stim,392,512225,0.0-390.0,1033ca98-d7f6-4c03-a02f-77aa08858248,,500,500,fixation,,<div class = centerbox><div class = fixation>+</div></div>,none,500,practice,,,,,,,,,,,1246,66,poldrack-categorize,393,514738,0.0-391.0,1033ca98-d7f6-4c03-a02f-77aa08858248,,1500,250,stim,,"<div class = centerbox><div class = stroop-stim style = ""color:blue"">BLUE</div></div>","66,71,82",1500,practice,,,congruent,TRUE,66,,,500,blue,blue,-1,-1,poldrack-single-stim,394,515499,0.0-392.0,1033ca98-d7f6-4c03-a02f-77aa08858248,,500,500,fixation,,<div class = centerbox><div class = fixation>+</div></div>,none,500,practice,,,,,,,,,,,942,82,poldrack-categorize,395,518012,0.0-393.0,1033ca98-d7f6-4c03-a02f-77aa08858248,,1500,250,stim,,"<div class = centerbox><div class = stroop-stim style = ""color:red"">RED</div></div>","66,71,82",1500,practice,,,congruent,TRUE,82,,,500,red,red,-1,-1,poldrack-single-stim,396,518773,0.0-394.0,1033ca98-d7f6-4c03-a02f-77aa08858248,,500,500,fixation,,<div class = centerbox><div class = fixation>+</div></div>,none,500,practice,,,,,,,,,,,1157,82,poldrack-categorize,397,521286,0.0-395.0,1033ca98-d7f6-4c03-a02f-77aa08858248,,1500,250,stim,,"<div class = centerbox><div class = stroop-stim style = ""color:red"">BLUE</div></div>","66,71,82",1500,practice,,,incongruent,TRUE,82,,,500,red,blue,-1,-1,poldrack-single-stim,398,522043,0.0-396.0,1033ca98-d7f6-4c03-a02f-77aa08858248,,500,500,fixation,,<div class = centerbox><div class = fixation>+</div></div>,none,500,practice,,,,,,,,,,,645,66,poldrack-categorize,399,524554,0.0-397.0,1033ca98-d7f6-4c03-a02f-77aa08858248,,1500,250,stim,,"<div class = centerbox><div class = stroop-stim style = ""color:blue"">BLUE</div></div>","66,71,82",1500,practice,,,congruent,TRUE,66,,,500,blue,blue,-1,-1,poldrack-single-stim,400,525308,0.0-398.0,1033ca98-d7f6-4c03-a02f-77aa08858248,,500,500,fixation,,<div class = centerbox><div class = fixation>+</div></div>,none,500,practice,,,,,,,,,,,888,66,poldrack-categorize,401,527822,0.0-399.0,1033ca98-d7f6-4c03-a02f-77aa08858248,,1500,250,stim,,"<div class = centerbox><div class = stroop-stim style = ""color:blue"">RED</div></div>","66,71,82",1500,practice,,,incongruent,TRUE,66,,,500,blue,red,-1,-1,poldrack-single-stim,402,528580,0.0-400.0,1033ca98-d7f6-4c03-a02f-77aa08858248,,500,500,fixation,,<div class = centerbox><div class = fixation>+</div></div>,none,500,practice,,,,,,,,,,,645,71,poldrack-categorize,403,531090,0.0-401.0,1033ca98-d7f6-4c03-a02f-77aa08858248,,1500,250,stim,,"<div class = centerbox><div class = stroop-stim style = ""color:green"">RED</div></div>","66,71,82",1500,practice,,,incongruent,TRUE,71,,,500,green,red,-1,-1,poldrack-single-stim,404,531847,0.0-402.0,1033ca98-d7f6-4c03-a02f-77aa08858248,,500,500,fixation,,<div class = centerbox><div class = fixation>+</div></div>,none,500,practice,,,,,,,,,,,-1,-1,poldrack-categorize,405,534358,0.0-403.0,1033ca98-d7f6-4c03-a02f-77aa08858248,,1500,250,stim,,"<div class = centerbox><div class = stroop-stim style = ""color:red"">GREEN</div></div>","66,71,82",1500,practice,,,incongruent,FALSE,82,,,500,red,green,-1,-1,poldrack-single-stim,406,535118,0.0-404.0,1033ca98-d7f6-4c03-a02f-77aa08858248,,500,500,fixation,,<div class = centerbox><div class = fixation>+</div></div>,none,500,practice,,,,,,,,,,,583,66,poldrack-categorize,407,537631,0.0-405.0,1033ca98-d7f6-4c03-a02f-77aa08858248,,1500,250,stim,,"<div class = centerbox><div class = stroop-stim style = ""color:blue"">BLUE</div></div>","66,71,82",1500,practice,,,congruent,TRUE,66,,,500,blue,blue,-1,-1,poldrack-single-stim,408,538392,0.0-406.0,1033ca98-d7f6-4c03-a02f-77aa08858248,,500,500,fixation,,<div class = centerbox><div class = fixation>+</div></div>,none,500,practice,,,,,,,,,,,943,82,poldrack-categorize,409,540905,0.0-407.0,1033ca98-d7f6-4c03-a02f-77aa08858248,,1500,250,stim,,"<div class = centerbox><div class = stroop-stim style = ""color:red"">RED</div></div>","66,71,82",1500,practice,,,congruent,TRUE,82,,,500,red,red,-1,-1,poldrack-single-stim,410,541666,0.0-408.0,1033ca98-d7f6-4c03-a02f-77aa08858248,,500,500,fixation,,<div class = centerbox><div class = fixation>+</div></div>,none,500,practice,,,,,,,,,,,448,66,poldrack-categorize,411,544179,0.0-409.0,1033ca98-d7f6-4c03-a02f-77aa08858248,,1500,250,stim,,"<div class = centerbox><div class = stroop-stim style = ""color:blue"">BLUE</div></div>","66,71,82",1500,practice,,,congruent,TRUE,66,,,500,blue,blue,-1,-1,poldrack-single-stim,412,544940,0.0-410.0,1033ca98-d7f6-4c03-a02f-77aa08858248,,500,500,fixation,,<div class = centerbox><div class = fixation>+</div></div>,none,500,practice,,,,,,,,,,,652,71,poldrack-categorize,413,547453,0.0-411.0,1033ca98-d7f6-4c03-a02f-77aa08858248,,1500,250,stim,,"<div class = centerbox><div class = stroop-stim style = ""color:green"">RED</div></div>","66,71,82",1500,practice,,,incongruent,TRUE,71,,,500,green,red,-1,-1,poldrack-single-stim,414,548208,0.0-412.0,1033ca98-d7f6-4c03-a02f-77aa08858248,,500,500,fixation,,<div class = centerbox><div class = fixation>+</div></div>,none,500,practice,,,,,,,,,,,725,71,poldrack-categorize,415,550721,0.0-413.0,1033ca98-d7f6-4c03-a02f-77aa08858248,,1500,250,stim,,"<div class = centerbox><div class = stroop-stim style = ""color:green"">GREEN</div></div>","66,71,82",1500,practice,,,congruent,TRUE,71,,,500,green,green,-1,-1,poldrack-single-stim,416,551481,0.0-414.0,1033ca98-d7f6-4c03-a02f-77aa08858248,,500,500,fixation,,<div class = centerbox><div class = fixation>+</div></div>,none,500,practice,,,,,,,,,,,556,71,poldrack-categorize,417,553995,0.0-415.0,1033ca98-d7f6-4c03-a02f-77aa08858248,,1500,250,stim,,"<div class = centerbox><div class = stroop-stim style = ""color:green"">GREEN</div></div>","66,71,82",1500,practice,,,congruent,TRUE,71,,,500,green,green,-1,-1,poldrack-single-stim,418,554755,0.0-416.0,1033ca98-d7f6-4c03-a02f-77aa08858248,,500,500,fixation,,<div class = centerbox><div class = fixation>+</div></div>,none,500,practice,,,,,,,,,,,623,82,poldrack-categorize,419,557269,0.0-417.0,1033ca98-d7f6-4c03-a02f-77aa08858248,,1500,250,stim,,"<div class = centerbox><div class = stroop-stim style = ""color:red"">RED</div></div>","66,71,82",1500,practice,,,congruent,TRUE,82,,,500,red,red,-1,-1,poldrack-single-stim,420,558029,0.0-418.0,1033ca98-d7f6-4c03-a02f-77aa08858248,,500,500,fixation,,<div class = centerbox><div class = fixation>+</div></div>,none,500,practice,,,,,,,,,,,1174,82,poldrack-categorize,421,560542,0.0-419.0,1033ca98-d7f6-4c03-a02f-77aa08858248,,1500,250,stim,,"<div class = centerbox><div class = stroop-stim style = ""color:red"">GREEN</div></div>","66,71,82",1500,practice,,,incongruent,TRUE,82,,,500,red,green,-1,-1,poldrack-single-stim,422,561303,0.0-420.0,1033ca98-d7f6-4c03-a02f-77aa08858248,,500,500,fixation,,<div class = centerbox><div class = fixation>+</div></div>,none,500,practice,,,,,,,,,,,589,71,poldrack-categorize,423,563816,0.0-421.0,1033ca98-d7f6-4c03-a02f-77aa08858248,,1500,250,stim,,"<div class = centerbox><div class = stroop-stim style = ""color:green"">BLUE</div></div>","66,71,82",1500,practice,,,incongruent,TRUE,71,,,500,green,blue,-1,-1,poldrack-single-stim,424,564577,0.0-422.0,1033ca98-d7f6-4c03-a02f-77aa08858248,,500,500,fixation,,<div class = centerbox><div class = fixation>+</div></div>,none,500,practice,,,,,,,,,,,870,66,poldrack-categorize,425,567090,0.0-423.0,1033ca98-d7f6-4c03-a02f-77aa08858248,,1500,250,stim,,"<div class = centerbox><div class = stroop-stim style = ""color:blue"">RED</div></div>","66,71,82",1500,practice,,,incongruent,TRUE,66,,,500,blue,red,-1,-1,poldrack-single-stim,426,567846,0.0-424.0,1033ca98-d7f6-4c03-a02f-77aa08858248,,500,500,fixation,,<div class = centerbox><div class = fixation>+</div></div>,none,500,practice,,,,,,,,,,,651,71,poldrack-categorize,427,570358,0.0-425.0,1033ca98-d7f6-4c03-a02f-77aa08858248,,1500,250,stim,,"<div class = centerbox><div class = stroop-stim style = ""color:green"">BLUE</div></div>","66,71,82",1500,practice,,,incongruent,TRUE,71,,,500,green,blue,-1,-1,poldrack-single-stim,428,571119,0.0-426.0,1033ca98-d7f6-4c03-a02f-77aa08858248,,500,500,fixation,,<div class = centerbox><div class = fixation>+</div></div>,none,500,practice,,,,,,,,,,,1440,66,poldrack-categorize,429,573626,0.0-427.0,1033ca98-d7f6-4c03-a02f-77aa08858248,,1500,250,stim,,"<div class = centerbox><div class = stroop-stim style = ""color:blue"">GREEN</div></div>","66,71,82",1500,practice,,,incongruent,TRUE,66,,,500,blue,green,-1,-1,poldrack-single-stim,430,574386,0.0-428.0,1033ca98-d7f6-4c03-a02f-77aa08858248,,500,500,fixation,,<div class = centerbox><div class = fixation>+</div></div>,none,500,practice,,,,,,,,,,,669,66,poldrack-categorize,431,576900,0.0-429.0,1033ca98-d7f6-4c03-a02f-77aa08858248,,1500,250,stim,,"<div class = centerbox><div class = stroop-stim style = ""color:blue"">GREEN</div></div>","66,71,82",1500,practice,,,incongruent,TRUE,66,,,500,blue,green,-1,-1,poldrack-single-stim,432,577659,0.0-430.0,1033ca98-d7f6-4c03-a02f-77aa08858248,,500,500,fixation,,<div class = centerbox><div class = fixation>+</div></div>,none,500,practice,,,,,,,,,,,516,71,poldrack-categorize,433,580168,0.0-431.0,1033ca98-d7f6-4c03-a02f-77aa08858248,,1500,250,stim,,"<div class = centerbox><div class = stroop-stim style = ""color:green"">GREEN</div></div>","66,71,82",1500,practice,,,congruent,TRUE,71,,,500,green,green,-1,-1,poldrack-single-stim,434,580928,0.0-432.0,1033ca98-d7f6-4c03-a02f-77aa08858248,,500,500,fixation,,<div class = centerbox><div class = fixation>+</div></div>,none,500,practice,,,,,,,,,,,629,82,poldrack-categorize,435,583442,0.0-433.0,1033ca98-d7f6-4c03-a02f-77aa08858248,,1500,250,stim,,"<div class = centerbox><div class = stroop-stim style = ""color:red"">RED</div></div>","66,71,82",1500,practice,,,congruent,TRUE,82,,,500,red,red,-1,-1,poldrack-single-stim,436,584202,0.0-434.0,1033ca98-d7f6-4c03-a02f-77aa08858248,,500,500,fixation,,<div class = centerbox><div class = fixation>+</div></div>,none,500,practice,,,,,,,,,,,-1,-1,poldrack-categorize,437,586715,0.0-435.0,1033ca98-d7f6-4c03-a02f-77aa08858248,,1500,250,stim,,"<div class = centerbox><div class = stroop-stim style = ""color:green"">GREEN</div></div>","66,71,82",1500,practice,,,congruent,FALSE,71,,,500,green,green,-1,-1,poldrack-single-stim,438,587474,0.0-436.0,1033ca98-d7f6-4c03-a02f-77aa08858248,,500,500,fixation,,<div class = centerbox><div class = fixation>+</div></div>,none,500,practice,,,,,,,,,,,668,82,poldrack-categorize,439,589983,0.0-437.0,1033ca98-d7f6-4c03-a02f-77aa08858248,,1500,250,stim,,"<div class = centerbox><div class = stroop-stim style = ""color:red"">BLUE</div></div>","66,71,82",1500,practice,,,incongruent,TRUE,82,,,500,red,blue,1949,13,poldrack-text,440,592188,0.0-439.0,1033ca98-d7f6-4c03-a02f-77aa08858248,<div class = centerbox><p class = center-block-text>We will now start the test. Respond exactly like you did during practice.</p><p class = center-block-text>Press <strong>enter</strong> to begin the test.</p></div>,1949,1000,test_intro,,,,,,,,,,,,,,,,-1,-1,poldrack-single-stim,441,593698,0.0-440.0,1033ca98-d7f6-4c03-a02f-77aa08858248,,500,500,fixation,,<div class = centerbox><div class = fixation>+</div></div>,none,500,test,,,,,,,,,,,594,82,poldrack-categorize,442,596212,0.0-441.0,1033ca98-d7f6-4c03-a02f-77aa08858248,,1500,250,stim,,"<div class = centerbox><div class = stroop-stim style = ""color:red"">RED</div></div>","66,71,82",1500,test,,,congruent,TRUE,82,,,500,red,red,-1,-1,poldrack-single-stim,443,596972,0.0-442.0,1033ca98-d7f6-4c03-a02f-77aa08858248,,500,500,fixation,,<div class = centerbox><div class = fixation>+</div></div>,none,500,test,,,,,,,,,,,494,66,poldrack-categorize,444,599486,0.0-443.0,1033ca98-d7f6-4c03-a02f-77aa08858248,,1500,250,stim,,"<div class = centerbox><div class = stroop-stim style = ""color:blue"">RED</div></div>","66,71,82",1500,test,,,incongruent,TRUE,66,,,500,blue,red,-1,-1,poldrack-single-stim,445,600246,0.0-444.0,1033ca98-d7f6-4c03-a02f-77aa08858248,,500,500,fixation,,<div class = centerbox><div class = fixation>+</div></div>,none,500,test,,,,,,,,,,,628,66,poldrack-categorize,446,602759,0.0-445.0,1033ca98-d7f6-4c03-a02f-77aa08858248,,1500,250,stim,,"<div class = centerbox><div class = stroop-stim style = ""color:blue"">BLUE</div></div>","66,71,82",1500,test,,,congruent,TRUE,66,,,500,blue,blue,-1,-1,poldrack-single-stim,447,603520,0.0-446.0,1033ca98-d7f6-4c03-a02f-77aa08858248,,500,500,fixation,,<div class = centerbox><div class = fixation>+</div></div>,none,500,test,,,,,,,,,,,560,66,poldrack-categorize,448,606027,0.0-447.0,1033ca98-d7f6-4c03-a02f-77aa08858248,,1500,250,stim,,"<div class = centerbox><div class = stroop-stim style = ""color:blue"">BLUE</div></div>","66,71,82",1500,test,,,congruent,TRUE,66,,,500,blue,blue,-1,-1,poldrack-single-stim,449,606782,0.0-448.0,1033ca98-d7f6-4c03-a02f-77aa08858248,,500,500,fixation,,<div class = centerbox><div class = fixation>+</div></div>,none,500,test,,,,,,,,,,,639,71,poldrack-categorize,450,609295,0.0-449.0,1033ca98-d7f6-4c03-a02f-77aa08858248,,1500,250,stim,,"<div class = centerbox><div class = stroop-stim style = ""color:green"">GREEN</div></div>","66,71,82",1500,test,,,congruent,TRUE,71,,,500,green,green,-1,-1,poldrack-single-stim,451,610056,0.0-450.0,1033ca98-d7f6-4c03-a02f-77aa08858248,,500,500,fixation,,<div class = centerbox><div class = fixation>+</div></div>,none,500,test,,,,,,,,,,,549,66,poldrack-categorize,452,612566,0.0-451.0,1033ca98-d7f6-4c03-a02f-77aa08858248,,1500,250,stim,,"<div class = centerbox><div class = stroop-stim style = ""color:blue"">BLUE</div></div>","66,71,82",1500,test,,,congruent,TRUE,66,,,500,blue,blue,-1,-1,poldrack-single-stim,453,613324,0.0-452.0,1033ca98-d7f6-4c03-a02f-77aa08858248,,500,500,fixation,,<div class = centerbox><div class = fixation>+</div></div>,none,500,test,,,,,,,,,,,724,71,poldrack-categorize,454,615837,0.0-453.0,1033ca98-d7f6-4c03-a02f-77aa08858248,,1500,250,stim,,"<div class = centerbox><div class = stroop-stim style = ""color:green"">GREEN</div></div>","66,71,82",1500,test,,,congruent,TRUE,71,,,500,green,green,-1,-1,poldrack-single-stim,455,616592,0.0-454.0,1033ca98-d7f6-4c03-a02f-77aa08858248,,500,500,fixation,,<div class = centerbox><div class = fixation>+</div></div>,none,500,test,,,,,,,,,,,718,66,poldrack-categorize,456,619101,0.0-455.0,1033ca98-d7f6-4c03-a02f-77aa08858248,,1500,250,stim,,"<div class = centerbox><div class = stroop-stim style = ""color:blue"">RED</div></div>","66,71,82",1500,test,,,incongruent,TRUE,66,,,500,blue,red,-1,-1,poldrack-single-stim,457,619860,0.0-456.0,1033ca98-d7f6-4c03-a02f-77aa08858248,,500,500,fixation,,<div class = centerbox><div class = fixation>+</div></div>,none,500,test,,,,,,,,,,,476,66,poldrack-categorize,458,622373,0.0-457.0,1033ca98-d7f6-4c03-a02f-77aa08858248,,1500,250,stim,,"<div class = centerbox><div class = stroop-stim style = ""color:blue"">GREEN</div></div>","66,71,82",1500,test,,,incongruent,TRUE,66,,,500,blue,green,-1,-1,poldrack-single-stim,459,623128,0.0-458.0,1033ca98-d7f6-4c03-a02f-77aa08858248,,500,500,fixation,,<div class = centerbox><div class = fixation>+</div></div>,none,500,test,,,,,,,,,,,831,71,poldrack-categorize,460,625641,0.0-459.0,1033ca98-d7f6-4c03-a02f-77aa08858248,,1500,250,stim,,"<div class = centerbox><div class = stroop-stim style = ""color:red"">RED</div></div>","66,71,82",1500,test,,,congruent,FALSE,82,,,500,red,red,-1,-1,poldrack-single-stim,461,626402,0.0-460.0,1033ca98-d7f6-4c03-a02f-77aa08858248,,500,500,fixation,,<div class = centerbox><div class = fixation>+</div></div>,none,500,test,,,,,,,,,,,471,66,poldrack-categorize,462,628915,0.0-461.0,1033ca98-d7f6-4c03-a02f-77aa08858248,,1500,250,stim,,"<div class = centerbox><div class = stroop-stim style = ""color:blue"">BLUE</div></div>","66,71,82",1500,test,,,congruent,TRUE,66,,,500,blue,blue,-1,-1,poldrack-single-stim,463,629675,0.0-462.0,1033ca98-d7f6-4c03-a02f-77aa08858248,,500,500,fixation,,<div class = centerbox><div class = fixation>+</div></div>,none,500,test,,,,,,,,,,,674,66,poldrack-categorize,464,632189,0.0-463.0,1033ca98-d7f6-4c03-a02f-77aa08858248,,1500,250,stim,,"<div class = centerbox><div class = stroop-stim style = ""color:blue"">BLUE</div></div>","66,71,82",1500,test,,,congruent,TRUE,66,,,500,blue,blue,-1,-1,poldrack-single-stim,465,632947,0.0-464.0,1033ca98-d7f6-4c03-a02f-77aa08858248,,500,500,fixation,,<div class = centerbox><div class = fixation>+</div></div>,none,500,test,,,,,,,,,,,613,71,poldrack-categorize,466,635455,0.0-465.0,1033ca98-d7f6-4c03-a02f-77aa08858248,,1500,250,stim,,"<div class = centerbox><div class = stroop-stim style = ""color:green"">GREEN</div></div>","66,71,82",1500,test,,,congruent,TRUE,71,,,500,green,green,-1,-1,poldrack-single-stim,467,636210,0.0-466.0,1033ca98-d7f6-4c03-a02f-77aa08858248,,500,500,fixation,,<div class = centerbox><div class = fixation>+</div></div>,none,500,test,,,,,,,,,,,529,82,poldrack-categorize,468,638725,0.0-467.0,1033ca98-d7f6-4c03-a02f-77aa08858248,,1500,250,stim,,"<div class = centerbox><div class = stroop-stim style = ""color:red"">RED</div></div>","66,71,82",1500,test,,,congruent,TRUE,82,,,500,red,red,-1,-1,poldrack-single-stim,469,639485,0.0-468.0,1033ca98-d7f6-4c03-a02f-77aa08858248,,500,500,fixation,,<div class = centerbox><div class = fixation>+</div></div>,none,500,test,,,,,,,,,,,620,71,poldrack-categorize,470,641998,0.0-469.0,1033ca98-d7f6-4c03-a02f-77aa08858248,,1500,250,stim,,"<div class = centerbox><div class = stroop-stim style = ""color:green"">BLUE</div></div>","66,71,82",1500,test,,,incongruent,TRUE,71,,,500,green,blue,-1,-1,poldrack-single-stim,471,642759,0.0-470.0,1033ca98-d7f6-4c03-a02f-77aa08858248,,500,500,fixation,,<div class = centerbox><div class = fixation>+</div></div>,none,500,test,,,,,,,,,,,618,66,poldrack-categorize,472,645269,0.0-471.0,1033ca98-d7f6-4c03-a02f-77aa08858248,,1500,250,stim,,"<div class = centerbox><div class = stroop-stim style = ""color:blue"">BLUE</div></div>","66,71,82",1500,test,,,congruent,TRUE,66,,,500,blue,blue,-1,-1,poldrack-single-stim,473,646027,0.0-472.0,1033ca98-d7f6-4c03-a02f-77aa08858248,,500,500,fixation,,<div class = centerbox><div class = fixation>+</div></div>,none,500,test,,,,,,,,,,,488,82,poldrack-categorize,474,648536,0.0-473.0,1033ca98-d7f6-4c03-a02f-77aa08858248,,1500,250,stim,,"<div class = centerbox><div class = stroop-stim style = ""color:red"">RED</div></div>","66,71,82",1500,test,,,congruent,TRUE,82,,,500,red,red,-1,-1,poldrack-single-stim,475,649295,0.0-474.0,1033ca98-d7f6-4c03-a02f-77aa08858248,,500,500,fixation,,<div class = centerbox><div class = fixation>+</div></div>,none,500,test,,,,,,,,,,,529,71,poldrack-categorize,476,651808,0.0-475.0,1033ca98-d7f6-4c03-a02f-77aa08858248,,1500,250,stim,,"<div class = centerbox><div class = stroop-stim style = ""color:red"">BLUE</div></div>","66,71,82",1500,test,,,incongruent,FALSE,82,,,500,red,blue,-1,-1,poldrack-single-stim,477,652569,0.0-476.0,1033ca98-d7f6-4c03-a02f-77aa08858248,,500,500,fixation,,<div class = centerbox><div class = fixation>+</div></div>,none,500,test,,,,,,,,,,,832,71,poldrack-categorize,478,655082,0.0-477.0,1033ca98-d7f6-4c03-a02f-77aa08858248,,1500,250,stim,,"<div class = centerbox><div class = stroop-stim style = ""color:green"">BLUE</div></div>","66,71,82",1500,test,,,incongruent,TRUE,71,,,500,green,blue,-1,-1,poldrack-single-stim,479,655843,0.0-478.0,1033ca98-d7f6-4c03-a02f-77aa08858248,,500,500,fixation,,<div class = centerbox><div class = fixation>+</div></div>,none,500,test,,,,,,,,,,,382,66,poldrack-categorize,480,658356,0.0-479.0,1033ca98-d7f6-4c03-a02f-77aa08858248,,1500,250,stim,,"<div class = centerbox><div class = stroop-stim style = ""color:blue"">GREEN</div></div>","66,71,82",1500,test,,,incongruent,TRUE,66,,,500,blue,green,-1,-1,poldrack-single-stim,481,659117,0.0-480.0,1033ca98-d7f6-4c03-a02f-77aa08858248,,500,500,fixation,,<div class = centerbox><div class = fixation>+</div></div>,none,500,test,,,,,,,,,,,667,71,poldrack-categorize,482,661624,0.0-481.0,1033ca98-d7f6-4c03-a02f-77aa08858248,,1500,250,stim,,"<div class = centerbox><div class = stroop-stim style = ""color:green"">RED</div></div>","66,71,82",1500,test,,,incongruent,TRUE,71,,,500,green,red,-1,-1,poldrack-single-stim,483,662384,0.0-482.0,1033ca98-d7f6-4c03-a02f-77aa08858248,,500,500,fixation,,<div class = centerbox><div class = fixation>+</div></div>,none,500,test,,,,,,,,,,,749,71,poldrack-categorize,484,664898,0.0-483.0,1033ca98-d7f6-4c03-a02f-77aa08858248,,1500,250,stim,,"<div class = centerbox><div class = stroop-stim style = ""color:green"">GREEN</div></div>","66,71,82",1500,test,,,congruent,TRUE,71,,,500,green,green,-1,-1,poldrack-single-stim,485,665658,0.0-484.0,1033ca98-d7f6-4c03-a02f-77aa08858248,,500,500,fixation,,<div class = centerbox><div class = fixation>+</div></div>,none,500,test,,,,,,,,,,,399,66,poldrack-categorize,486,668172,0.0-485.0,1033ca98-d7f6-4c03-a02f-77aa08858248,,1500,250,stim,,"<div class = centerbox><div class = stroop-stim style = ""color:blue"">BLUE</div></div>","66,71,82",1500,test,,,congruent,TRUE,66,,,500,blue,blue,-1,-1,poldrack-single-stim,487,668932,0.0-486.0,1033ca98-d7f6-4c03-a02f-77aa08858248,,500,500,fixation,,<div class = centerbox><div class = fixation>+</div></div>,none,500,test,,,,,,,,,,,669,82,poldrack-categorize,488,671445,0.0-487.0,1033ca98-d7f6-4c03-a02f-77aa08858248,,1500,250,stim,,"<div class = centerbox><div class = stroop-stim style = ""color:red"">GREEN</div></div>","66,71,82",1500,test,,,incongruent,TRUE,82,,,500,red,green,-1,-1,poldrack-single-stim,489,672204,0.0-488.0,1033ca98-d7f6-4c03-a02f-77aa08858248,,500,500,fixation,,<div class = centerbox><div class = fixation>+</div></div>,none,500,test,,,,,,,,,,,495,66,poldrack-categorize,490,674708,0.0-489.0,1033ca98-d7f6-4c03-a02f-77aa08858248,,1500,250,stim,,"<div class = centerbox><div class = stroop-stim style = ""color:blue"">BLUE</div></div>","66,71,82",1500,test,,,congruent,TRUE,66,,,500,blue,blue,-1,-1,poldrack-single-stim,491,675468,0.0-490.0,1033ca98-d7f6-4c03-a02f-77aa08858248,,500,500,fixation,,<div class = centerbox><div class = fixation>+</div></div>,none,500,test,,,,,,,,,,,478,71,poldrack-categorize,492,677981,0.0-491.0,1033ca98-d7f6-4c03-a02f-77aa08858248,,1500,250,stim,,"<div class = centerbox><div class = stroop-stim style = ""color:green"">GREEN</div></div>","66,71,82",1500,test,,,congruent,TRUE,71,,,500,green,green,-1,-1,poldrack-single-stim,493,678742,0.0-492.0,1033ca98-d7f6-4c03-a02f-77aa08858248,,500,500,fixation,,<div class = centerbox><div class = fixation>+</div></div>,none,500,test,,,,,,,,,,,489,66,poldrack-categorize,494,681255,0.0-493.0,1033ca98-d7f6-4c03-a02f-77aa08858248,,1500,250,stim,,"<div class = centerbox><div class = stroop-stim style = ""color:blue"">GREEN</div></div>","66,71,82",1500,test,,,incongruent,TRUE,66,,,500,blue,green,-1,-1,poldrack-single-stim,495,682016,0.0-494.0,1033ca98-d7f6-4c03-a02f-77aa08858248,,500,500,fixation,,<div class = centerbox><div class = fixation>+</div></div>,none,500,test,,,,,,,,,,,659,71,poldrack-categorize,496,684529,0.0-495.0,1033ca98-d7f6-4c03-a02f-77aa08858248,,1500,250,stim,,"<div class = centerbox><div class = stroop-stim style = ""color:red"">GREEN</div></div>","66,71,82",1500,test,,,incongruent,FALSE,82,,,500,red,green,-1,-1,poldrack-single-stim,497,685284,0.0-496.0,1033ca98-d7f6-4c03-a02f-77aa08858248,,500,500,fixation,,<div class = centerbox><div class = fixation>+</div></div>,none,500,test,,,,,,,,,,,800,66,poldrack-categorize,498,687797,0.0-497.0,1033ca98-d7f6-4c03-a02f-77aa08858248,,1500,250,stim,,"<div class = centerbox><div class = stroop-stim style = ""color:blue"">BLUE</div></div>","66,71,82",1500,test,,,congruent,TRUE,66,,,500,blue,blue,-1,-1,poldrack-single-stim,499,688558,0.0-498.0,1033ca98-d7f6-4c03-a02f-77aa08858248,,500,500,fixation,,<div class = centerbox><div class = fixation>+</div></div>,none,500,test,,,,,,,,,,,945,66,poldrack-categorize,500,691071,0.0-499.0,1033ca98-d7f6-4c03-a02f-77aa08858248,,1500,250,stim,,"<div class = centerbox><div class = stroop-stim style = ""color:blue"">GREEN</div></div>","66,71,82",1500,test,,,incongruent,TRUE,66,,,500,blue,green,-1,-1,poldrack-single-stim,501,691831,0.0-500.0,1033ca98-d7f6-4c03-a02f-77aa08858248,,500,500,fixation,,<div class = centerbox><div class = fixation>+</div></div>,none,500,test,,,,,,,,,,,675,66,poldrack-categorize,502,694345,0.0-501.0,1033ca98-d7f6-4c03-a02f-77aa08858248,,1500,250,stim,,"<div class = centerbox><div class = stroop-stim style = ""color:blue"">GREEN</div></div>","66,71,82",1500,test,,,incongruent,TRUE,66,,,500,blue,green,-1,-1,poldrack-single-stim,503,695105,0.0-502.0,1033ca98-d7f6-4c03-a02f-77aa08858248,,500,500,fixation,,<div class = centerbox><div class = fixation>+</div></div>,none,500,test,,,,,,,,,,,608,82,poldrack-categorize,504,697618,0.0-503.0,1033ca98-d7f6-4c03-a02f-77aa08858248,,1500,250,stim,,"<div class = centerbox><div class = stroop-stim style = ""color:red"">RED</div></div>","66,71,82",1500,test,,,congruent,TRUE,82,,,500,red,red,-1,-1,poldrack-single-stim,505,698379,0.0-504.0,1033ca98-d7f6-4c03-a02f-77aa08858248,,500,500,fixation,,<div class = centerbox><div class = fixation>+</div></div>,none,500,test,,,,,,,,,,,585,66,poldrack-categorize,506,700892,0.0-505.0,1033ca98-d7f6-4c03-a02f-77aa08858248,,1500,250,stim,,"<div class = centerbox><div class = stroop-stim style = ""color:blue"">BLUE</div></div>","66,71,82",1500,test,,,congruent,TRUE,66,,,500,blue,blue,-1,-1,poldrack-single-stim,507,701653,0.0-506.0,1033ca98-d7f6-4c03-a02f-77aa08858248,,500,500,fixation,,<div class = centerbox><div class = fixation>+</div></div>,none,500,test,,,,,,,,,,,631,82,poldrack-categorize,508,704160,0.0-507.0,1033ca98-d7f6-4c03-a02f-77aa08858248,,1500,250,stim,,"<div class = centerbox><div class = stroop-stim style = ""color:red"">RED</div></div>","66,71,82",1500,test,,,congruent,TRUE,82,,,500,red,red,-1,-1,poldrack-single-stim,509,704921,0.0-508.0,1033ca98-d7f6-4c03-a02f-77aa08858248,,500,500,fixation,,<div class = centerbox><div class = fixation>+</div></div>,none,500,test,,,,,,,,,,,570,71,poldrack-categorize,510,707434,0.0-509.0,1033ca98-d7f6-4c03-a02f-77aa08858248,,1500,250,stim,,"<div class = centerbox><div class = stroop-stim style = ""color:green"">RED</div></div>","66,71,82",1500,test,,,incongruent,TRUE,71,,,500,green,red,-1,-1,poldrack-single-stim,511,708194,0.0-510.0,1033ca98-d7f6-4c03-a02f-77aa08858248,,500,500,fixation,,<div class = centerbox><div class = fixation>+</div></div>,none,500,test,,,,,,,,,,,625,82,poldrack-categorize,512,710704,0.0-511.0,1033ca98-d7f6-4c03-a02f-77aa08858248,,1500,250,stim,,"<div class = centerbox><div class = stroop-stim style = ""color:red"">BLUE</div></div>","66,71,82",1500,test,,,incongruent,TRUE,82,,,500,red,blue,-1,-1,poldrack-single-stim,513,711463,0.0-512.0,1033ca98-d7f6-4c03-a02f-77aa08858248,,500,500,fixation,,<div class = centerbox><div class = fixation>+</div></div>,none,500,test,,,,,,,,,,,440,66,poldrack-categorize,514,713976,0.0-513.0,1033ca98-d7f6-4c03-a02f-77aa08858248,,1500,250,stim,,"<div class = centerbox><div class = stroop-stim style = ""color:blue"">GREEN</div></div>","66,71,82",1500,test,,,incongruent,TRUE,66,,,500,blue,green,-1,-1,poldrack-single-stim,515,714736,0.0-514.0,1033ca98-d7f6-4c03-a02f-77aa08858248,,500,500,fixation,,<div class = centerbox><div class = fixation>+</div></div>,none,500,test,,,,,,,,,,,1384,71,poldrack-categorize,516,717249,0.0-515.0,1033ca98-d7f6-4c03-a02f-77aa08858248,,1500,250,stim,,"<div class = centerbox><div class = stroop-stim style = ""color:green"">RED</div></div>","66,71,82",1500,test,,,incongruent,TRUE,71,,,500,green,red,-1,-1,poldrack-single-stim,517,718004,0.0-516.0,1033ca98-d7f6-4c03-a02f-77aa08858248,,500,500,fixation,,<div class = centerbox><div class = fixation>+</div></div>,none,500,test,,,,,,,,,,,501,71,poldrack-categorize,518,720517,0.0-517.0,1033ca98-d7f6-4c03-a02f-77aa08858248,,1500,250,stim,,"<div class = centerbox><div class = stroop-stim style = ""color:green"">RED</div></div>","66,71,82",1500,test,,,incongruent,TRUE,71,,,500,green,red,-1,-1,poldrack-single-stim,519,721278,0.0-518.0,1033ca98-d7f6-4c03-a02f-77aa08858248,,500,500,fixation,,<div class = centerbox><div class = fixation>+</div></div>,none,500,test,,,,,,,,,,,602,82,poldrack-categorize,520,723791,0.0-519.0,1033ca98-d7f6-4c03-a02f-77aa08858248,,1500,250,stim,,"<div class = centerbox><div class = stroop-stim style = ""color:red"">GREEN</div></div>","66,71,82",1500,test,,,incongruent,TRUE,82,,,500,red,green,-1,-1,poldrack-single-stim,521,724552,0.0-520.0,1033ca98-d7f6-4c03-a02f-77aa08858248,,500,500,fixation,,<div class = centerbox><div class = fixation>+</div></div>,none,500,test,,,,,,,,,,,603,82,poldrack-categorize,522,727065,0.0-521.0,1033ca98-d7f6-4c03-a02f-77aa08858248,,1500,250,stim,,"<div class = centerbox><div class = stroop-stim style = ""color:red"">RED</div></div>","66,71,82",1500,test,,,congruent,TRUE,82,,,500,red,red,-1,-1,poldrack-single-stim,523,727826,0.0-522.0,1033ca98-d7f6-4c03-a02f-77aa08858248,,500,500,fixation,,<div class = centerbox><div class = fixation>+</div></div>,none,500,test,,,,,,,,,,,401,82,poldrack-categorize,524,730339,0.0-523.0,1033ca98-d7f6-4c03-a02f-77aa08858248,,1500,250,stim,,"<div class = centerbox><div class = stroop-stim style = ""color:red"">RED</div></div>","66,71,82",1500,test,,,congruent,TRUE,82,,,500,red,red,-1,-1,poldrack-single-stim,525,731099,0.0-524.0,1033ca98-d7f6-4c03-a02f-77aa08858248,,500,500,fixation,,<div class = centerbox><div class = fixation>+</div></div>,none,500,test,,,,,,,,,,,434,82,poldrack-categorize,526,733613,0.0-525.0,1033ca98-d7f6-4c03-a02f-77aa08858248,,1500,250,stim,,"<div class = centerbox><div class = stroop-stim style = ""color:red"">BLUE</div></div>","66,71,82",1500,test,,,incongruent,TRUE,82,,,500,red,blue,-1,-1,poldrack-single-stim,527,734373,0.0-526.0,1033ca98-d7f6-4c03-a02f-77aa08858248,,500,500,fixation,,<div class = centerbox><div class = fixation>+</div></div>,none,500,test,,,,,,,,,,,558,66,poldrack-categorize,528,736887,0.0-527.0,1033ca98-d7f6-4c03-a02f-77aa08858248,,1500,250,stim,,"<div class = centerbox><div class = stroop-stim style = ""color:blue"">BLUE</div></div>","66,71,82",1500,test,,,congruent,TRUE,66,,,500,blue,blue,-1,-1,poldrack-single-stim,529,737647,0.0-528.0,1033ca98-d7f6-4c03-a02f-77aa08858248,,500,500,fixation,,<div class = centerbox><div class = fixation>+</div></div>,none,500,test,,,,,,,,,,,401,66,poldrack-categorize,530,740158,0.0-529.0,1033ca98-d7f6-4c03-a02f-77aa08858248,,1500,250,stim,,"<div class = centerbox><div class = stroop-stim style = ""color:blue"">BLUE</div></div>","66,71,82",1500,test,,,congruent,TRUE,66,,,500,blue,blue,-1,-1,poldrack-single-stim,531,740915,0.0-530.0,1033ca98-d7f6-4c03-a02f-77aa08858248,,500,500,fixation,,<div class = centerbox><div class = fixation>+</div></div>,none,500,test,,,,,,,,,,,383,66,poldrack-categorize,532,743428,0.0-531.0,1033ca98-d7f6-4c03-a02f-77aa08858248,,1500,250,stim,,"<div class = centerbox><div class = stroop-stim style = ""color:blue"">BLUE</div></div>","66,71,82",1500,test,,,congruent,TRUE,66,,,500,blue,blue,-1,-1,poldrack-single-stim,533,744189,0.0-532.0,1033ca98-d7f6-4c03-a02f-77aa08858248,,500,500,fixation,,<div class = centerbox><div class = fixation>+</div></div>,none,500,test,,,,,,,,,,,540,82,poldrack-categorize,534,746702,0.0-533.0,1033ca98-d7f6-4c03-a02f-77aa08858248,,1500,250,stim,,"<div class = centerbox><div class = stroop-stim style = ""color:red"">RED</div></div>","66,71,82",1500,test,,,congruent,TRUE,82,,,500,red,red,-1,-1,poldrack-single-stim,535,747463,0.0-534.0,1033ca98-d7f6-4c03-a02f-77aa08858248,,500,500,fixation,,<div class = centerbox><div class = fixation>+</div></div>,none,500,test,,,,,,,,,,,495,82,poldrack-categorize,536,749976,0.0-535.0,1033ca98-d7f6-4c03-a02f-77aa08858248,,1500,250,stim,,"<div class = centerbox><div class = stroop-stim style = ""color:red"">RED</div></div>","66,71,82",1500,test,,,congruent,TRUE,82,,,500,red,red,-1,-1,poldrack-single-stim,537,750731,0.0-536.0,1033ca98-d7f6-4c03-a02f-77aa08858248,,500,500,fixation,,<div class = centerbox><div class = fixation>+</div></div>,none,500,test,,,,,,,,,,,547,71,poldrack-categorize,538,753244,0.0-537.0,1033ca98-d7f6-4c03-a02f-77aa08858248,,1500,250,stim,,"<div class = centerbox><div class = stroop-stim style = ""color:green"">GREEN</div></div>","66,71,82",1500,test,,,congruent,TRUE,71,,,500,green,green,-1,-1,poldrack-single-stim,539,754004,0.0-538.0,1033ca98-d7f6-4c03-a02f-77aa08858248,,500,500,fixation,,<div class = centerbox><div class = fixation>+</div></div>,none,500,test,,,,,,,,,,,459,66,poldrack-categorize,540,756518,0.0-539.0,1033ca98-d7f6-4c03-a02f-77aa08858248,,1500,250,stim,,"<div class = centerbox><div class = stroop-stim style = ""color:blue"">BLUE</div></div>","66,71,82",1500,test,,,congruent,TRUE,66,,,500,blue,blue,-1,-1,poldrack-single-stim,541,757278,0.0-540.0,1033ca98-d7f6-4c03-a02f-77aa08858248,,500,500,fixation,,<div class = centerbox><div class = fixation>+</div></div>,none,500,test,,,,,,,,,,,985,82,poldrack-categorize,542,759790,0.0-541.0,1033ca98-d7f6-4c03-a02f-77aa08858248,,1500,250,stim,,"<div class = centerbox><div class = stroop-stim style = ""color:red"">GREEN</div></div>","66,71,82",1500,test,,,incongruent,TRUE,82,,,500,red,green,-1,-1,poldrack-single-stim,543,760546,0.0-542.0,1033ca98-d7f6-4c03-a02f-77aa08858248,,500,500,fixation,,<div class = centerbox><div class = fixation>+</div></div>,none,500,test,,,,,,,,,,,1014,71,poldrack-categorize,544,763060,0.0-543.0,1033ca98-d7f6-4c03-a02f-77aa08858248,,1500,250,stim,,"<div class = centerbox><div class = stroop-stim style = ""color:green"">BLUE</div></div>","66,71,82",1500,test,,,incongruent,TRUE,71,,,500,green,blue,-1,-1,poldrack-single-stim,545,763820,0.0-544.0,1033ca98-d7f6-4c03-a02f-77aa08858248,,500,500,fixation,,<div class = centerbox><div class = fixation>+</div></div>,none,500,test,,,,,,,,,,,901,66,poldrack-categorize,546,766333,0.0-545.0,1033ca98-d7f6-4c03-a02f-77aa08858248,,1500,250,stim,,"<div class = centerbox><div class = stroop-stim style = ""color:blue"">RED</div></div>","66,71,82",1500,test,,,incongruent,TRUE,66,,,500,blue,red,-1,-1,poldrack-single-stim,547,767094,0.0-546.0,1033ca98-d7f6-4c03-a02f-77aa08858248,,500,500,fixation,,<div class = centerbox><div class = fixation>+</div></div>,none,500,test,,,,,,,,,,,631,71,poldrack-categorize,548,769607,0.0-547.0,1033ca98-d7f6-4c03-a02f-77aa08858248,,1500,250,stim,,"<div class = centerbox><div class = stroop-stim style = ""color:green"">BLUE</div></div>","66,71,82",1500,test,,,incongruent,TRUE,71,,,500,green,blue,-1,-1,poldrack-single-stim,549,770366,0.0-548.0,1033ca98-d7f6-4c03-a02f-77aa08858248,,500,500,fixation,,<div class = centerbox><div class = fixation>+</div></div>,none,500,test,,,,,,,,,,,524,66,poldrack-categorize,550,772875,0.0-549.0,1033ca98-d7f6-4c03-a02f-77aa08858248,,1500,250,stim,,"<div class = centerbox><div class = stroop-stim style = ""color:blue"">BLUE</div></div>","66,71,82",1500,test,,,congruent,TRUE,66,,,500,blue,blue,-1,-1,poldrack-single-stim,551,773630,0.0-550.0,1033ca98-d7f6-4c03-a02f-77aa08858248,,500,500,fixation,,<div class = centerbox><div class = fixation>+</div></div>,none,500,test,,,,,,,,,,,485,66,poldrack-categorize,552,776144,0.0-551.0,1033ca98-d7f6-4c03-a02f-77aa08858248,,1500,250,stim,,"<div class = centerbox><div class = stroop-stim style = ""color:green"">GREEN</div></div>","66,71,82",1500,test,,,congruent,FALSE,71,,,500,green,green,-1,-1,poldrack-single-stim,553,776904,0.0-552.0,1033ca98-d7f6-4c03-a02f-77aa08858248,,500,500,fixation,,<div class = centerbox><div class = fixation>+</div></div>,none,500,test,,,,,,,,,,,1273,82,poldrack-categorize,554,779417,0.0-553.0,1033ca98-d7f6-4c03-a02f-77aa08858248,,1500,250,stim,,"<div class = centerbox><div class = stroop-stim style = ""color:red"">RED</div></div>","66,71,82",1500,test,,,congruent,TRUE,82,,,500,red,red,-1,-1,poldrack-single-stim,555,780177,0.0-554.0,1033ca98-d7f6-4c03-a02f-77aa08858248,,500,500,fixation,,<div class = centerbox><div class = fixation>+</div></div>,none,500,test,,,,,,,,,,,1014,82,poldrack-categorize,556,782691,0.0-555.0,1033ca98-d7f6-4c03-a02f-77aa08858248,,1500,250,stim,,"<div class = centerbox><div class = stroop-stim style = ""color:red"">GREEN</div></div>","66,71,82",1500,test,,,incongruent,TRUE,82,,,500,red,green,-1,-1,poldrack-single-stim,557,783451,0.0-556.0,1033ca98-d7f6-4c03-a02f-77aa08858248,,500,500,fixation,,<div class = centerbox><div class = fixation>+</div></div>,none,500,test,,,,,,,,,,,530,71,poldrack-categorize,558,785965,0.0-557.0,1033ca98-d7f6-4c03-a02f-77aa08858248,,1500,250,stim,,"<div class = centerbox><div class = stroop-stim style = ""color:green"">GREEN</div></div>","66,71,82",1500,test,,,congruent,TRUE,71,,,500,green,green,-1,-1,poldrack-single-stim,559,786725,0.0-558.0,1033ca98-d7f6-4c03-a02f-77aa08858248,,500,500,fixation,,<div class = centerbox><div class = fixation>+</div></div>,none,500,test,,,,,,,,,,,565,82,poldrack-categorize,560,789238,0.0-559.0,1033ca98-d7f6-4c03-a02f-77aa08858248,,1500,250,stim,,"<div class = centerbox><div class = stroop-stim style = ""color:red"">BLUE</div></div>","66,71,82",1500,test,,,incongruent,TRUE,82,,,500,red,blue,-1,-1,poldrack-single-stim,561,789999,0.0-560.0,1033ca98-d7f6-4c03-a02f-77aa08858248,,500,500,fixation,,<div class = centerbox><div class = fixation>+</div></div>,none,500,test,,,,,,,,,,,564,66,poldrack-categorize,562,792512,0.0-561.0,1033ca98-d7f6-4c03-a02f-77aa08858248,,1500,250,stim,,"<div class = centerbox><div class = stroop-stim style = ""color:blue"">RED</div></div>","66,71,82",1500,test,,,incongruent,TRUE,66,,,500,blue,red,-1,-1,poldrack-single-stim,563,793272,0.0-562.0,1033ca98-d7f6-4c03-a02f-77aa08858248,,500,500,fixation,,<div class = centerbox><div class = fixation>+</div></div>,none,500,test,,,,,,,,,,,474,66,poldrack-categorize,564,795786,0.0-563.0,1033ca98-d7f6-4c03-a02f-77aa08858248,,1500,250,stim,,"<div class = centerbox><div class = stroop-stim style = ""color:red"">RED</div></div>","66,71,82",1500,test,,,congruent,FALSE,82,,,500,red,red,-1,-1,poldrack-single-stim,565,796546,0.0-564.0,1033ca98-d7f6-4c03-a02f-77aa08858248,,500,500,fixation,,<div class = centerbox><div class = fixation>+</div></div>,none,500,test,,,,,,,,,,,1104,71,poldrack-categorize,566,799060,0.0-565.0,1033ca98-d7f6-4c03-a02f-77aa08858248,,1500,250,stim,,"<div class = centerbox><div class = stroop-stim style = ""color:green"">BLUE</div></div>","66,71,82",1500,test,,,incongruent,TRUE,71,,,500,green,blue,-1,-1,poldrack-single-stim,567,799815,0.0-566.0,1033ca98-d7f6-4c03-a02f-77aa08858248,,500,500,fixation,,<div class = centerbox><div class = fixation>+</div></div>,none,500,test,,,,,,,,,,,469,71,poldrack-categorize,568,802327,0.0-567.0,1033ca98-d7f6-4c03-a02f-77aa08858248,,1500,250,stim,,"<div class = centerbox><div class = stroop-stim style = ""color:green"">GREEN</div></div>","66,71,82",1500,test,,,congruent,TRUE,71,,,500,green,green,-1,-1,poldrack-single-stim,569,803088,0.0-568.0,1033ca98-d7f6-4c03-a02f-77aa08858248,,500,500,fixation,,<div class = centerbox><div class = fixation>+</div></div>,none,500,test,,,,,,,,,,,705,82,poldrack-categorize,570,805602,0.0-569.0,1033ca98-d7f6-4c03-a02f-77aa08858248,,1500,250,stim,,"<div class = centerbox><div class = stroop-stim style = ""color:red"">RED</div></div>","66,71,82",1500,test,,,congruent,TRUE,82,,,500,red,red,-1,-1,poldrack-single-stim,571,806362,0.0-570.0,1033ca98-d7f6-4c03-a02f-77aa08858248,,500,500,fixation,,<div class = centerbox><div class = fixation>+</div></div>,none,500,test,,,,,,,,,,,731,71,poldrack-categorize,572,808870,0.0-571.0,1033ca98-d7f6-4c03-a02f-77aa08858248,,1500,250,stim,,"<div class = centerbox><div class = stroop-stim style = ""color:green"">GREEN</div></div>","66,71,82",1500,test,,,congruent,TRUE,71,,,500,green,green,-1,-1,poldrack-single-stim,573,809630,0.0-572.0,1033ca98-d7f6-4c03-a02f-77aa08858248,,500,500,fixation,,<div class = centerbox><div class = fixation>+</div></div>,none,500,test,,,,,,,,,,,767,66,poldrack-categorize,574,812143,0.0-573.0,1033ca98-d7f6-4c03-a02f-77aa08858248,,1500,250,stim,,"<div class = centerbox><div class = stroop-stim style = ""color:blue"">BLUE</div></div>","66,71,82",1500,test,,,congruent,TRUE,66,,,500,blue,blue,-1,-1,poldrack-single-stim,575,812904,0.0-574.0,1033ca98-d7f6-4c03-a02f-77aa08858248,,500,500,fixation,,<div class = centerbox><div class = fixation>+</div></div>,none,500,test,,,,,,,,,,,631,82,poldrack-categorize,576,815417,0.0-575.0,1033ca98-d7f6-4c03-a02f-77aa08858248,,1500,250,stim,,"<div class = centerbox><div class = stroop-stim style = ""color:red"">BLUE</div></div>","66,71,82",1500,test,,,incongruent,TRUE,82,,,500,red,blue,-1,-1,poldrack-single-stim,577,816178,0.0-576.0,1033ca98-d7f6-4c03-a02f-77aa08858248,,500,500,fixation,,<div class = centerbox><div class = fixation>+</div></div>,none,500,test,,,,,,,,,,,789,71,poldrack-categorize,578,818690,0.0-577.0,1033ca98-d7f6-4c03-a02f-77aa08858248,,1500,250,stim,,"<div class = centerbox><div class = stroop-stim style = ""color:green"">GREEN</div></div>","66,71,82",1500,test,,,congruent,TRUE,71,,,500,green,green,-1,-1,poldrack-single-stim,579,819448,0.0-578.0,1033ca98-d7f6-4c03-a02f-77aa08858248,,500,500,fixation,,<div class = centerbox><div class = fixation>+</div></div>,none,500,test,,,,,,,,,,,873,82,poldrack-categorize,580,821955,0.0-579.0,1033ca98-d7f6-4c03-a02f-77aa08858248,,1500,250,stim,,"<div class = centerbox><div class = stroop-stim style = ""color:red"">BLUE</div></div>","66,71,82",1500,test,,,incongruent,TRUE,82,,,500,red,blue,-1,-1,poldrack-single-stim,581,822714,0.0-580.0,1033ca98-d7f6-4c03-a02f-77aa08858248,,500,500,fixation,,<div class = centerbox><div class = fixation>+</div></div>,none,500,test,,,,,,,,,,,565,71,poldrack-categorize,582,825227,0.0-581.0,1033ca98-d7f6-4c03-a02f-77aa08858248,,1500,250,stim,,"<div class = centerbox><div class = stroop-stim style = ""color:green"">GREEN</div></div>","66,71,82",1500,test,,,congruent,TRUE,71,,,500,green,green,-1,-1,poldrack-single-stim,583,825988,0.0-582.0,1033ca98-d7f6-4c03-a02f-77aa08858248,,500,500,fixation,,<div class = centerbox><div class = fixation>+</div></div>,none,500,test,,,,,,,,,,,576,82,poldrack-categorize,584,828501,0.0-583.0,1033ca98-d7f6-4c03-a02f-77aa08858248,,1500,250,stim,,"<div class = centerbox><div class = stroop-stim style = ""color:red"">RED</div></div>","66,71,82",1500,test,,,congruent,TRUE,82,,,500,red,red,-1,-1,poldrack-single-stim,585,829261,0.0-584.0,1033ca98-d7f6-4c03-a02f-77aa08858248,,500,500,fixation,,<div class = centerbox><div class = fixation>+</div></div>,none,500,test,,,,,,,,,,,486,82,poldrack-categorize,586,831774,0.0-585.0,1033ca98-d7f6-4c03-a02f-77aa08858248,,1500,250,stim,,"<div class = centerbox><div class = stroop-stim style = ""color:red"">BLUE</div></div>","66,71,82",1500,test,,,incongruent,TRUE,82,,,500,red,blue,-1,-1,poldrack-single-stim,587,832529,0.0-586.0,1033ca98-d7f6-4c03-a02f-77aa08858248,,500,500,fixation,,<div class = centerbox><div class = fixation>+</div></div>,none,500,test,,,,,,,,,,,965,66,poldrack-categorize,588,835043,0.0-587.0,1033ca98-d7f6-4c03-a02f-77aa08858248,,1500,250,stim,,"<div class = centerbox><div class = stroop-stim style = ""color:blue"">RED</div></div>","66,71,82",1500,test,,,incongruent,TRUE,66,,,500,blue,red,-1,-1,poldrack-single-stim,589,835803,0.0-588.0,1033ca98-d7f6-4c03-a02f-77aa08858248,,500,500,fixation,,<div class = centerbox><div class = fixation>+</div></div>,none,500,test,,,,,,,,,,,496,82,poldrack-categorize,590,838311,0.0-589.0,1033ca98-d7f6-4c03-a02f-77aa08858248,,1500,250,stim,,"<div class = centerbox><div class = stroop-stim style = ""color:red"">RED</div></div>","66,71,82",1500,test,,,congruent,TRUE,82,,,500,red,red,-1,-1,poldrack-single-stim,591,839071,0.0-590.0,1033ca98-d7f6-4c03-a02f-77aa08858248,,500,500,fixation,,<div class = centerbox><div class = fixation>+</div></div>,none,500,test,,,,,,,,,,,880,66,poldrack-categorize,592,841584,0.0-591.0,1033ca98-d7f6-4c03-a02f-77aa08858248,,1500,250,stim,,"<div class = centerbox><div class = stroop-stim style = ""color:blue"">GREEN</div></div>","66,71,82",1500,test,,,incongruent,TRUE,66,,,500,blue,green,-1,-1,poldrack-single-stim,593,842345,0.0-592.0,1033ca98-d7f6-4c03-a02f-77aa08858248,,500,500,fixation,,<div class = centerbox><div class = fixation>+</div></div>,none,500,test,,,,,,,,,,,603,71,poldrack-categorize,594,844852,0.0-593.0,1033ca98-d7f6-4c03-a02f-77aa08858248,,1500,250,stim,,"<div class = centerbox><div class = stroop-stim style = ""color:green"">RED</div></div>","66,71,82",1500,test,,,incongruent,TRUE,71,,,500,green,red,-1,-1,poldrack-single-stim,595,845613,0.0-594.0,1033ca98-d7f6-4c03-a02f-77aa08858248,,500,500,fixation,,<div class = centerbox><div class = fixation>+</div></div>,none,500,test,,,,,,,,,,,717,82,poldrack-categorize,596,848126,0.0-595.0,1033ca98-d7f6-4c03-a02f-77aa08858248,,1500,250,stim,,"<div class = centerbox><div class = stroop-stim style = ""color:red"">GREEN</div></div>","66,71,82",1500,test,,,incongruent,TRUE,82,,,500,red,green,-1,-1,poldrack-single-stim,597,848885,0.0-596.0,1033ca98-d7f6-4c03-a02f-77aa08858248,,500,500,fixation,,<div class = centerbox><div class = fixation>+</div></div>,none,500,test,,,,,,,,,,,610,66,poldrack-categorize,598,851391,0.0-597.0,1033ca98-d7f6-4c03-a02f-77aa08858248,,1500,250,stim,,"<div class = centerbox><div class = stroop-stim style = ""color:green"">BLUE</div></div>","66,71,82",1500,test,,,incongruent,FALSE,71,,,500,green,blue,-1,-1,poldrack-single-stim,599,852149,0.0-598.0,1033ca98-d7f6-4c03-a02f-77aa08858248,,500,500,fixation,,<div class = centerbox><div class = fixation>+</div></div>,none,500,test,,,,,,,,,,,740,66,poldrack-categorize,600,854661,0.0-599.0,1033ca98-d7f6-4c03-a02f-77aa08858248,,1500,250,stim,,"<div class = centerbox><div class = stroop-stim style = ""color:blue"">GREEN</div></div>","66,71,82",1500,test,,,incongruent,TRUE,66,,,500,blue,green,-1,-1,poldrack-single-stim,601,855417,0.0-600.0,1033ca98-d7f6-4c03-a02f-77aa08858248,,500,500,fixation,,<div class = centerbox><div class = fixation>+</div></div>,none,500,test,,,,,,,,,,,543,82,poldrack-categorize,602,857930,0.0-601.0,1033ca98-d7f6-4c03-a02f-77aa08858248,,1500,250,stim,,"<div class = centerbox><div class = stroop-stim style = ""color:red"">GREEN</div></div>","66,71,82",1500,test,,,incongruent,TRUE,82,,,500,red,green,-1,-1,poldrack-single-stim,603,858691,0.0-602.0,1033ca98-d7f6-4c03-a02f-77aa08858248,,500,500,fixation,,<div class = centerbox><div class = fixation>+</div></div>,none,500,test,,,,,,,,,,,477,82,poldrack-categorize,604,861204,0.0-603.0,1033ca98-d7f6-4c03-a02f-77aa08858248,,1500,250,stim,,"<div class = centerbox><div class = stroop-stim style = ""color:red"">RED</div></div>","66,71,82",1500,test,,,congruent,TRUE,82,,,500,red,red,-1,-1,poldrack-single-stim,605,861965,0.0-604.0,1033ca98-d7f6-4c03-a02f-77aa08858248,,500,500,fixation,,<div class = centerbox><div class = fixation>+</div></div>,none,500,test,,,,,,,,,,,678,66,poldrack-categorize,606,864478,0.0-605.0,1033ca98-d7f6-4c03-a02f-77aa08858248,,1500,250,stim,,"<div class = centerbox><div class = stroop-stim style = ""color:blue"">RED</div></div>","66,71,82",1500,test,,,incongruent,TRUE,66,,,500,blue,red,-1,-1,poldrack-single-stim,607,865238,0.0-606.0,1033ca98-d7f6-4c03-a02f-77aa08858248,,500,500,fixation,,<div class = centerbox><div class = fixation>+</div></div>,none,500,test,,,,,,,,,,,422,66,poldrack-categorize,608,867742,0.0-607.0,1033ca98-d7f6-4c03-a02f-77aa08858248,,1500,250,stim,,"<div class = centerbox><div class = stroop-stim style = ""color:blue"">RED</div></div>","66,71,82",1500,test,,,incongruent,TRUE,66,,,500,blue,red,-1,-1,poldrack-single-stim,609,868502,0.0-608.0,1033ca98-d7f6-4c03-a02f-77aa08858248,,500,500,fixation,,<div class = centerbox><div class = fixation>+</div></div>,none,500,test,,,,,,,,,,,541,82,poldrack-categorize,610,871014,0.0-609.0,1033ca98-d7f6-4c03-a02f-77aa08858248,,1500,250,stim,,"<div class = centerbox><div class = stroop-stim style = ""color:red"">GREEN</div></div>","66,71,82",1500,test,,,incongruent,TRUE,82,,,500,red,green,-1,-1,poldrack-single-stim,611,871774,0.0-610.0,1033ca98-d7f6-4c03-a02f-77aa08858248,,500,500,fixation,,<div class = centerbox><div class = fixation>+</div></div>,none,500,test,,,,,,,,,,,668,71,poldrack-categorize,612,874288,0.0-611.0,1033ca98-d7f6-4c03-a02f-77aa08858248,,1500,250,stim,,"<div class = centerbox><div class = stroop-stim style = ""color:green"">GREEN</div></div>","66,71,82",1500,test,,,congruent,TRUE,71,,,500,green,green,-1,-1,poldrack-single-stim,613,875048,0.0-612.0,1033ca98-d7f6-4c03-a02f-77aa08858248,,500,500,fixation,,<div class = centerbox><div class = fixation>+</div></div>,none,500,test,,,,,,,,,,,635,71,poldrack-categorize,614,877561,0.0-613.0,1033ca98-d7f6-4c03-a02f-77aa08858248,,1500,250,stim,,"<div class = centerbox><div class = stroop-stim style = ""color:green"">RED</div></div>","66,71,82",1500,test,,,incongruent,TRUE,71,,,500,green,red,-1,-1,poldrack-single-stim,615,878322,0.0-614.0,1033ca98-d7f6-4c03-a02f-77aa08858248,,500,500,fixation,,<div class = centerbox><div class = fixation>+</div></div>,none,500,test,,,,,,,,,,,487,71,poldrack-categorize,616,880835,0.0-615.0,1033ca98-d7f6-4c03-a02f-77aa08858248,,1500,250,stim,,"<div class = centerbox><div class = stroop-stim style = ""color:green"">BLUE</div></div>","66,71,82",1500,test,,,incongruent,TRUE,71,,,500,green,blue,-1,-1,poldrack-single-stim,617,881596,0.0-616.0,1033ca98-d7f6-4c03-a02f-77aa08858248,,500,500,fixation,,<div class = centerbox><div class = fixation>+</div></div>,none,500,test,,,,,,,,,,,431,71,poldrack-categorize,618,884109,0.0-617.0,1033ca98-d7f6-4c03-a02f-77aa08858248,,1500,250,stim,,"<div class = centerbox><div class = stroop-stim style = ""color:green"">GREEN</div></div>","66,71,82",1500,test,,,congruent,TRUE,71,,,500,green,green,-1,-1,poldrack-single-stim,619,884870,0.0-618.0,1033ca98-d7f6-4c03-a02f-77aa08858248,,500,500,fixation,,<div class = centerbox><div class = fixation>+</div></div>,none,500,test,,,,,,,,,,,589,71,poldrack-categorize,620,887383,0.0-619.0,1033ca98-d7f6-4c03-a02f-77aa08858248,,1500,250,stim,,"<div class = centerbox><div class = stroop-stim style = ""color:green"">BLUE</div></div>","66,71,82",1500,test,,,incongruent,TRUE,71,,,500,green,blue,-1,-1,poldrack-single-stim,621,888143,0.0-620.0,1033ca98-d7f6-4c03-a02f-77aa08858248,,500,500,fixation,,<div class = centerbox><div class = fixation>+</div></div>,none,500,test,,,,,,,,,,,768,71,poldrack-categorize,622,890657,0.0-621.0,1033ca98-d7f6-4c03-a02f-77aa08858248,,1500,250,stim,,"<div class = centerbox><div class = stroop-stim style = ""color:green"">GREEN</div></div>","66,71,82",1500,test,,,congruent,TRUE,71,,,500,green,green,-1,-1,poldrack-single-stim,623,891417,0.0-622.0,1033ca98-d7f6-4c03-a02f-77aa08858248,,500,500,fixation,,<div class = centerbox><div class = fixation>+</div></div>,none,500,test,,,,,,,,,,,701,66,poldrack-categorize,624,893927,0.0-623.0,1033ca98-d7f6-4c03-a02f-77aa08858248,,1500,250,stim,,"<div class = centerbox><div class = stroop-stim style = ""color:blue"">RED</div></div>","66,71,82",1500,test,,,incongruent,TRUE,66,,,500,blue,red,-1,-1,poldrack-single-stim,625,894685,0.0-624.0,1033ca98-d7f6-4c03-a02f-77aa08858248,,500,500,fixation,,<div class = centerbox><div class = fixation>+</div></div>,none,500,test,,,,,,,,,,,617,82,poldrack-categorize,626,897194,0.0-625.0,1033ca98-d7f6-4c03-a02f-77aa08858248,,1500,250,stim,,"<div class = centerbox><div class = stroop-stim style = ""color:red"">BLUE</div></div>","66,71,82",1500,test,,,incongruent,TRUE,82,,,500,red,blue,-1,-1,poldrack-single-stim,627,897953,0.0-626.0,1033ca98-d7f6-4c03-a02f-77aa08858248,,500,500,fixation,,<div class = centerbox><div class = fixation>+</div></div>,none,500,test,,,,,,,,,,,612,71,poldrack-categorize,628,900466,0.0-627.0,1033ca98-d7f6-4c03-a02f-77aa08858248,,1500,250,stim,,"<div class = centerbox><div class = stroop-stim style = ""color:green"">RED</div></div>","66,71,82",1500,test,,,incongruent,TRUE,71,,,500,green,red,-1,-1,poldrack-single-stim,629,901227,0.0-628.0,1033ca98-d7f6-4c03-a02f-77aa08858248,,500,500,fixation,,<div class = centerbox><div class = fixation>+</div></div>,none,500,test,,,,,,,,,,,728,71,poldrack-categorize,630,903734,0.0-629.0,1033ca98-d7f6-4c03-a02f-77aa08858248,,1500,250,stim,,"<div class = centerbox><div class = stroop-stim style = ""color:green"">RED</div></div>","66,71,82",1500,test,,,incongruent,TRUE,71,,,500,green,red,-1,-1,poldrack-single-stim,631,904495,0.0-630.0,1033ca98-d7f6-4c03-a02f-77aa08858248,,500,500,fixation,,<div class = centerbox><div class = fixation>+</div></div>,none,500,test,,,,,,,,,,,459,71,poldrack-categorize,632,907008,0.0-631.0,1033ca98-d7f6-4c03-a02f-77aa08858248,,1500,250,stim,,"<div class = centerbox><div class = stroop-stim style = ""color:green"">GREEN</div></div>","66,71,82",1500,test,,,congruent,TRUE,71,,,500,green,green,15601,,survey-text,633,922865,0.0-633.0,1033ca98-d7f6-4c03-a02f-77aa08858248,,,,post task questions,,,,,,,,,,,"{""Q0"":""Choose color of ink"",""Q1"":""Na\n""}",,,,,1434,13,poldrack-text,634,925305,0.0-634.0,1033ca98-d7f6-4c03-a02f-77aa08858248,<div class = centerbox><p class = center-block-text>Thanks for completing this task!</p><p class = center-block-text>Press <strong>enter</strong> to continue.</p></div>,1434,0,end,,,,,,,,,,,,stroop,,,,TRUE10033,13,text,635,935385,0.0-635.0,1033ca98-d7f6-4c03-a02f-77aa08858248,,,,,,,,,,,,,,,,,,,,