"rt","key_press","trial_type","trial_index","time_elapsed","internal_node_id","subject","text","block_duration","timing_post_trial","trial_id","view_history","stimulus","possible_responses","stim_duration","exp_stage","correct","correct_response","feedback_duration","condition","stim_color","stim_word","responses","exp_id","credit_var"
"1379","13","text","0","1381","0.0-0.0","f6f70853-1db6-438a-9998-59418d63ad4b","","","","","","","","","","","","","","","","","",""
"2056","13","poldrack-text","1","4439","0.0-1.0-0.0","f6f70853-1db6-438a-9998-59418d63ad4b","<div class = centerbox><p class = center-block-text>Welcome to the experiment. This experiment will take about 8 minutes. Press <strong>enter</strong> to begin.</p></div>","2056","0","instruction","","","","","","","","","","","","","",""
"36553","","poldrack-instructions","2","40993","0.0-1.0-1.0","f6f70853-1db6-438a-9998-59418d63ad4b","","","","instruction","[{""page_index"":0,""viewing_time"":36552}]","","","","","","","","","","","","",""
"5317","13","poldrack-text","3","47314","0.0-2.0","f6f70853-1db6-438a-9998-59418d63ad4b","<div class = centerbox><p class = block-text>We will start with a few practice trials. Remember, press the key corresponding to the <strong>ink</strong> color of the word: ""r"" for words colored red, ""b"" for words colored blue, and ""g"" for words colored green.</p><p class = block-text>Press <strong>enter</strong> to begin practice.</p></div>","5317","1000","practice_intro","","","","","","","","","","","","","",""
"-1","-1","poldrack-single-stim","4","48821","0.0-3.0","f6f70853-1db6-438a-9998-59418d63ad4b","","500","500","fixation","","<div class = centerbox><div class = fixation>+</div></div>","none","500","practice","","","","","","","","",""
"870","71","poldrack-categorize","5","51330","0.0-4.0","f6f70853-1db6-438a-9998-59418d63ad4b","","1500","250","stim","","<div class = centerbox><div class = stroop-stim style = ""color:red"">GREEN</div></div>","66,71,82","1500","practice","false","82","500","incongruent","red","green","","",""
"-1","-1","poldrack-single-stim","6","52088","0.0-5.0","f6f70853-1db6-438a-9998-59418d63ad4b","","500","500","fixation","","<div class = centerbox><div class = fixation>+</div></div>","none","500","practice","","","","","","","","",""
"1077","71","poldrack-categorize","7","54598","0.0-6.0","f6f70853-1db6-438a-9998-59418d63ad4b","","1500","250","stim","","<div class = centerbox><div class = stroop-stim style = ""color:green"">BLUE</div></div>","66,71,82","1500","practice","true","71","500","incongruent","green","blue","","",""
"-1","-1","poldrack-single-stim","8","55350","0.0-7.0","f6f70853-1db6-438a-9998-59418d63ad4b","","500","500","fixation","","<div class = centerbox><div class = fixation>+</div></div>","none","500","practice","","","","","","","","",""
"762","82","poldrack-categorize","9","57858","0.0-8.0","f6f70853-1db6-438a-9998-59418d63ad4b","","1500","250","stim","","<div class = centerbox><div class = stroop-stim style = ""color:red"">GREEN</div></div>","66,71,82","1500","practice","true","82","500","incongruent","red","green","","",""
"-1","-1","poldrack-single-stim","10","58618","0.0-9.0","f6f70853-1db6-438a-9998-59418d63ad4b","","500","500","fixation","","<div class = centerbox><div class = fixation>+</div></div>","none","500","practice","","","","","","","","",""
"767","71","poldrack-categorize","11","61132","0.0-10.0","f6f70853-1db6-438a-9998-59418d63ad4b","","1500","250","stim","","<div class = centerbox><div class = stroop-stim style = ""color:green"">BLUE</div></div>","66,71,82","1500","practice","true","71","500","incongruent","green","blue","","",""
"-1","-1","poldrack-single-stim","12","61893","0.0-11.0","f6f70853-1db6-438a-9998-59418d63ad4b","","500","500","fixation","","<div class = centerbox><div class = fixation>+</div></div>","none","500","practice","","","","","","","","",""
"712","71","poldrack-categorize","13","64406","0.0-12.0","f6f70853-1db6-438a-9998-59418d63ad4b","","1500","250","stim","","<div class = centerbox><div class = stroop-stim style = ""color:green"">RED</div></div>","66,71,82","1500","practice","true","71","500","incongruent","green","red","","",""
"-1","-1","poldrack-single-stim","14","65166","0.0-13.0","f6f70853-1db6-438a-9998-59418d63ad4b","","500","500","fixation","","<div class = centerbox><div class = fixation>+</div></div>","none","500","practice","","","","","","","","",""
"622","71","poldrack-categorize","15","67679","0.0-14.0","f6f70853-1db6-438a-9998-59418d63ad4b","","1500","250","stim","","<div class = centerbox><div class = stroop-stim style = ""color:green"">GREEN</div></div>","66,71,82","1500","practice","true","71","500","congruent","green","green","","",""
"-1","-1","poldrack-single-stim","16","68440","0.0-15.0","f6f70853-1db6-438a-9998-59418d63ad4b","","500","500","fixation","","<div class = centerbox><div class = fixation>+</div></div>","none","500","practice","","","","","","","","",""
"644","71","poldrack-categorize","17","70950","0.0-16.0","f6f70853-1db6-438a-9998-59418d63ad4b","","1500","250","stim","","<div class = centerbox><div class = stroop-stim style = ""color:green"">GREEN</div></div>","66,71,82","1500","practice","true","71","500","congruent","green","green","","",""
"-1","-1","poldrack-single-stim","18","71708","0.0-17.0","f6f70853-1db6-438a-9998-59418d63ad4b","","500","500","fixation","","<div class = centerbox><div class = fixation>+</div></div>","none","500","practice","","","","","","","","",""
"886","82","poldrack-categorize","19","74221","0.0-18.0","f6f70853-1db6-438a-9998-59418d63ad4b","","1500","250","stim","","<div class = centerbox><div class = stroop-stim style = ""color:red"">BLUE</div></div>","66,71,82","1500","practice","true","82","500","incongruent","red","blue","","",""
"-1","-1","poldrack-single-stim","20","74982","0.0-19.0","f6f70853-1db6-438a-9998-59418d63ad4b","","500","500","fixation","","<div class = centerbox><div class = fixation>+</div></div>","none","500","practice","","","","","","","","",""
"878","66","poldrack-categorize","21","77489","0.0-20.0","f6f70853-1db6-438a-9998-59418d63ad4b","","1500","250","stim","","<div class = centerbox><div class = stroop-stim style = ""color:blue"">RED</div></div>","66,71,82","1500","practice","true","66","500","incongruent","blue","red","","",""
"-1","-1","poldrack-single-stim","22","78250","0.0-21.0","f6f70853-1db6-438a-9998-59418d63ad4b","","500","500","fixation","","<div class = centerbox><div class = fixation>+</div></div>","none","500","practice","","","","","","","","",""
"679","71","poldrack-categorize","23","80761","0.0-22.0","f6f70853-1db6-438a-9998-59418d63ad4b","","1500","250","stim","","<div class = centerbox><div class = stroop-stim style = ""color:green"">GREEN</div></div>","66,71,82","1500","practice","true","71","500","congruent","green","green","","",""
"-1","-1","poldrack-single-stim","24","81518","0.0-23.0","f6f70853-1db6-438a-9998-59418d63ad4b","","500","500","fixation","","<div class = centerbox><div class = fixation>+</div></div>","none","500","practice","","","","","","","","",""
"807","66","poldrack-categorize","25","84031","0.0-24.0","f6f70853-1db6-438a-9998-59418d63ad4b","","1500","250","stim","","<div class = centerbox><div class = stroop-stim style = ""color:blue"">BLUE</div></div>","66,71,82","1500","practice","true","66","500","congruent","blue","blue","","",""
"-1","-1","poldrack-single-stim","26","84791","0.0-25.0","f6f70853-1db6-438a-9998-59418d63ad4b","","500","500","fixation","","<div class = centerbox><div class = fixation>+</div></div>","none","500","practice","","","","","","","","",""
"798","71","poldrack-categorize","27","87305","0.0-26.0","f6f70853-1db6-438a-9998-59418d63ad4b","","1500","250","stim","","<div class = centerbox><div class = stroop-stim style = ""color:green"">GREEN</div></div>","66,71,82","1500","practice","true","71","500","congruent","green","green","","",""
"-1","-1","poldrack-single-stim","28","88065","0.0-27.0","f6f70853-1db6-438a-9998-59418d63ad4b","","500","500","fixation","","<div class = centerbox><div class = fixation>+</div></div>","none","500","practice","","","","","","","","",""
"-1","-1","poldrack-categorize","29","90574","0.0-28.0","f6f70853-1db6-438a-9998-59418d63ad4b","","1500","250","stim","","<div class = centerbox><div class = stroop-stim style = ""color:blue"">BLUE</div></div>","66,71,82","1500","practice","false","66","500","congruent","blue","blue","","",""
"-1","-1","poldrack-single-stim","30","91333","0.0-29.0","f6f70853-1db6-438a-9998-59418d63ad4b","","500","500","fixation","","<div class = centerbox><div class = fixation>+</div></div>","none","500","practice","","","","","","","","",""
"881","82","poldrack-categorize","31","93846","0.0-30.0","f6f70853-1db6-438a-9998-59418d63ad4b","","1500","250","stim","","<div class = centerbox><div class = stroop-stim style = ""color:red"">BLUE</div></div>","66,71,82","1500","practice","true","82","500","incongruent","red","blue","","",""
"-1","-1","poldrack-single-stim","32","94607","0.0-31.0","f6f70853-1db6-438a-9998-59418d63ad4b","","500","500","fixation","","<div class = centerbox><div class = fixation>+</div></div>","none","500","practice","","","","","","","","",""
"1051","66","poldrack-categorize","33","97120","0.0-32.0","f6f70853-1db6-438a-9998-59418d63ad4b","","1500","250","stim","","<div class = centerbox><div class = stroop-stim style = ""color:blue"">GREEN</div></div>","66,71,82","1500","practice","true","66","500","incongruent","blue","green","","",""
"-1","-1","poldrack-single-stim","34","97881","0.0-33.0","f6f70853-1db6-438a-9998-59418d63ad4b","","500","500","fixation","","<div class = centerbox><div class = fixation>+</div></div>","none","500","practice","","","","","","","","",""
"824","71","poldrack-categorize","35","100394","0.0-34.0","f6f70853-1db6-438a-9998-59418d63ad4b","","1500","250","stim","","<div class = centerbox><div class = stroop-stim style = ""color:green"">RED</div></div>","66,71,82","1500","practice","true","71","500","incongruent","green","red","","",""
"-1","-1","poldrack-single-stim","36","101155","0.0-35.0","f6f70853-1db6-438a-9998-59418d63ad4b","","500","500","fixation","","<div class = centerbox><div class = fixation>+</div></div>","none","500","practice","","","","","","","","",""
"554","66","poldrack-categorize","37","103668","0.0-36.0","f6f70853-1db6-438a-9998-59418d63ad4b","","1500","250","stim","","<div class = centerbox><div class = stroop-stim style = ""color:blue"">RED</div></div>","66,71,82","1500","practice","true","66","500","incongruent","blue","red","","",""
"-1","-1","poldrack-single-stim","38","104428","0.0-37.0","f6f70853-1db6-438a-9998-59418d63ad4b","","500","500","fixation","","<div class = centerbox><div class = fixation>+</div></div>","none","500","practice","","","","","","","","",""
"577","82","poldrack-categorize","39","106942","0.0-38.0","f6f70853-1db6-438a-9998-59418d63ad4b","","1500","250","stim","","<div class = centerbox><div class = stroop-stim style = ""color:red"">RED</div></div>","66,71,82","1500","practice","true","82","500","congruent","red","red","","",""
"-1","-1","poldrack-single-stim","40","107702","0.0-39.0","f6f70853-1db6-438a-9998-59418d63ad4b","","500","500","fixation","","<div class = centerbox><div class = fixation>+</div></div>","none","500","practice","","","","","","","","",""
"791","82","poldrack-categorize","41","110216","0.0-40.0","f6f70853-1db6-438a-9998-59418d63ad4b","","1500","250","stim","","<div class = centerbox><div class = stroop-stim style = ""color:red"">RED</div></div>","66,71,82","1500","practice","true","82","500","congruent","red","red","","",""
"-1","-1","poldrack-single-stim","42","110976","0.0-41.0","f6f70853-1db6-438a-9998-59418d63ad4b","","500","500","fixation","","<div class = centerbox><div class = fixation>+</div></div>","none","500","practice","","","","","","","","",""
"667","82","poldrack-categorize","43","113489","0.0-42.0","f6f70853-1db6-438a-9998-59418d63ad4b","","1500","250","stim","","<div class = centerbox><div class = stroop-stim style = ""color:red"">RED</div></div>","66,71,82","1500","practice","true","82","500","congruent","red","red","","",""
"-1","-1","poldrack-single-stim","44","114250","0.0-43.0","f6f70853-1db6-438a-9998-59418d63ad4b","","500","500","fixation","","<div class = centerbox><div class = fixation>+</div></div>","none","500","practice","","","","","","","","",""
"667","82","poldrack-categorize","45","116763","0.0-44.0","f6f70853-1db6-438a-9998-59418d63ad4b","","1500","250","stim","","<div class = centerbox><div class = stroop-stim style = ""color:red"">RED</div></div>","66,71,82","1500","practice","true","82","500","congruent","red","red","","",""
"-1","-1","poldrack-single-stim","46","117524","0.0-45.0","f6f70853-1db6-438a-9998-59418d63ad4b","","500","500","fixation","","<div class = centerbox><div class = fixation>+</div></div>","none","500","practice","","","","","","","","",""
"903","66","poldrack-categorize","47","120037","0.0-46.0","f6f70853-1db6-438a-9998-59418d63ad4b","","1500","250","stim","","<div class = centerbox><div class = stroop-stim style = ""color:blue"">GREEN</div></div>","66,71,82","1500","practice","true","66","500","incongruent","blue","green","","",""
"-1","-1","poldrack-single-stim","48","120798","0.0-47.0","f6f70853-1db6-438a-9998-59418d63ad4b","","500","500","fixation","","<div class = centerbox><div class = fixation>+</div></div>","none","500","practice","","","","","","","","",""
"701","66","poldrack-categorize","49","123311","0.0-48.0","f6f70853-1db6-438a-9998-59418d63ad4b","","1500","250","stim","","<div class = centerbox><div class = stroop-stim style = ""color:blue"">BLUE</div></div>","66,71,82","1500","practice","true","66","500","congruent","blue","blue","","",""
"-1","-1","poldrack-single-stim","50","124071","0.0-49.0","f6f70853-1db6-438a-9998-59418d63ad4b","","500","500","fixation","","<div class = centerbox><div class = fixation>+</div></div>","none","500","practice","","","","","","","","",""
"555","66","poldrack-categorize","51","126585","0.0-50.0","f6f70853-1db6-438a-9998-59418d63ad4b","","1500","250","stim","","<div class = centerbox><div class = stroop-stim style = ""color:blue"">BLUE</div></div>","66,71,82","1500","practice","true","66","500","congruent","blue","blue","","",""
"2814","13","poldrack-text","52","129654","0.0-52.0","f6f70853-1db6-438a-9998-59418d63ad4b","<div class = centerbox><p class = center-block-text>We will now start the test. Respond exactly like you did during practice.</p><p class = center-block-text>Press <strong>enter</strong> to begin the test.</p></div>","2814","1000","test_intro","","","","","","","","","","","","","",""
"-1","-1","poldrack-single-stim","53","131165","0.0-53.0","f6f70853-1db6-438a-9998-59418d63ad4b","","500","500","fixation","","<div class = centerbox><div class = fixation>+</div></div>","none","500","test","","","","","","","","",""
"586","82","poldrack-categorize","54","133672","0.0-54.0","f6f70853-1db6-438a-9998-59418d63ad4b","","1500","250","stim","","<div class = centerbox><div class = stroop-stim style = ""color:red"">GREEN</div></div>","66,71,82","1500","test","true","82","500","incongruent","red","green","","",""
"-1","-1","poldrack-single-stim","55","134433","0.0-55.0","f6f70853-1db6-438a-9998-59418d63ad4b","","500","500","fixation","","<div class = centerbox><div class = fixation>+</div></div>","none","500","test","","","","","","","","",""
"590","66","poldrack-categorize","56","136946","0.0-56.0","f6f70853-1db6-438a-9998-59418d63ad4b","","1500","250","stim","","<div class = centerbox><div class = stroop-stim style = ""color:blue"">RED</div></div>","66,71,82","1500","test","true","66","500","incongruent","blue","red","","",""
"-1","-1","poldrack-single-stim","57","137704","0.0-57.0","f6f70853-1db6-438a-9998-59418d63ad4b","","500","500","fixation","","<div class = centerbox><div class = fixation>+</div></div>","none","500","test","","","","","","","","",""
"-1","-1","poldrack-categorize","58","140214","0.0-58.0","f6f70853-1db6-438a-9998-59418d63ad4b","","1500","250","stim","","<div class = centerbox><div class = stroop-stim style = ""color:green"">BLUE</div></div>","66,71,82","1500","test","false","71","500","incongruent","green","blue","","",""
"-1","-1","poldrack-single-stim","59","140974","0.0-59.0","f6f70853-1db6-438a-9998-59418d63ad4b","","500","500","fixation","","<div class = centerbox><div class = fixation>+</div></div>","none","500","test","","","","","","","","",""
"651","82","poldrack-categorize","60","143488","0.0-60.0","f6f70853-1db6-438a-9998-59418d63ad4b","","1500","250","stim","","<div class = centerbox><div class = stroop-stim style = ""color:red"">GREEN</div></div>","66,71,82","1500","test","true","82","500","incongruent","red","green","","",""
"-1","-1","poldrack-single-stim","61","144248","0.0-61.0","f6f70853-1db6-438a-9998-59418d63ad4b","","500","500","fixation","","<div class = centerbox><div class = fixation>+</div></div>","none","500","test","","","","","","","","",""
"595","66","poldrack-categorize","62","146761","0.0-62.0","f6f70853-1db6-438a-9998-59418d63ad4b","","1500","250","stim","","<div class = centerbox><div class = stroop-stim style = ""color:blue"">GREEN</div></div>","66,71,82","1500","test","true","66","500","incongruent","blue","green","","",""
"-1","-1","poldrack-single-stim","63","147522","0.0-63.0","f6f70853-1db6-438a-9998-59418d63ad4b","","500","500","fixation","","<div class = centerbox><div class = fixation>+</div></div>","none","500","test","","","","","","","","",""
"653","66","poldrack-categorize","64","150035","0.0-64.0","f6f70853-1db6-438a-9998-59418d63ad4b","","1500","250","stim","","<div class = centerbox><div class = stroop-stim style = ""color:blue"">GREEN</div></div>","66,71,82","1500","test","true","66","500","incongruent","blue","green","","",""
"-1","-1","poldrack-single-stim","65","150793","0.0-65.0","f6f70853-1db6-438a-9998-59418d63ad4b","","500","500","fixation","","<div class = centerbox><div class = fixation>+</div></div>","none","500","test","","","","","","","","",""
"531","71","poldrack-categorize","66","153303","0.0-66.0","f6f70853-1db6-438a-9998-59418d63ad4b","","1500","250","stim","","<div class = centerbox><div class = stroop-stim style = ""color:green"">GREEN</div></div>","66,71,82","1500","test","true","71","500","congruent","green","green","","",""
"-1","-1","poldrack-single-stim","67","154064","0.0-67.0","f6f70853-1db6-438a-9998-59418d63ad4b","","500","500","fixation","","<div class = centerbox><div class = fixation>+</div></div>","none","500","test","","","","","","","","",""
"567","82","poldrack-categorize","68","156577","0.0-68.0","f6f70853-1db6-438a-9998-59418d63ad4b","","1500","250","stim","","<div class = centerbox><div class = stroop-stim style = ""color:red"">RED</div></div>","66,71,82","1500","test","true","82","500","congruent","red","red","","",""
"-1","-1","poldrack-single-stim","69","157338","0.0-69.0","f6f70853-1db6-438a-9998-59418d63ad4b","","500","500","fixation","","<div class = centerbox><div class = fixation>+</div></div>","none","500","test","","","","","","","","",""
"669","71","poldrack-categorize","70","159851","0.0-70.0","f6f70853-1db6-438a-9998-59418d63ad4b","","1500","250","stim","","<div class = centerbox><div class = stroop-stim style = ""color:green"">GREEN</div></div>","66,71,82","1500","test","true","71","500","congruent","green","green","","",""
"-1","-1","poldrack-single-stim","71","160611","0.0-71.0","f6f70853-1db6-438a-9998-59418d63ad4b","","500","500","fixation","","<div class = centerbox><div class = fixation>+</div></div>","none","500","test","","","","","","","","",""
"612","66","poldrack-categorize","72","163125","0.0-72.0","f6f70853-1db6-438a-9998-59418d63ad4b","","1500","250","stim","","<div class = centerbox><div class = stroop-stim style = ""color:blue"">RED</div></div>","66,71,82","1500","test","true","66","500","incongruent","blue","red","","",""
"-1","-1","poldrack-single-stim","73","163886","0.0-73.0","f6f70853-1db6-438a-9998-59418d63ad4b","","500","500","fixation","","<div class = centerbox><div class = fixation>+</div></div>","none","500","test","","","","","","","","",""
"523","71","poldrack-categorize","74","166398","0.0-74.0","f6f70853-1db6-438a-9998-59418d63ad4b","","1500","250","stim","","<div class = centerbox><div class = stroop-stim style = ""color:green"">GREEN</div></div>","66,71,82","1500","test","true","71","500","congruent","green","green","","",""
"-1","-1","poldrack-single-stim","75","167158","0.0-75.0","f6f70853-1db6-438a-9998-59418d63ad4b","","500","500","fixation","","<div class = centerbox><div class = fixation>+</div></div>","none","500","test","","","","","","","","",""
"636","66","poldrack-categorize","76","169671","0.0-76.0","f6f70853-1db6-438a-9998-59418d63ad4b","","1500","250","stim","","<div class = centerbox><div class = stroop-stim style = ""color:blue"">GREEN</div></div>","66,71,82","1500","test","true","66","500","incongruent","blue","green","","",""
"-1","-1","poldrack-single-stim","77","170427","0.0-77.0","f6f70853-1db6-438a-9998-59418d63ad4b","","500","500","fixation","","<div class = centerbox><div class = fixation>+</div></div>","none","500","test","","","","","","","","",""
"651","71","poldrack-categorize","78","172940","0.0-78.0","f6f70853-1db6-438a-9998-59418d63ad4b","","1500","250","stim","","<div class = centerbox><div class = stroop-stim style = ""color:green"">GREEN</div></div>","66,71,82","1500","test","true","71","500","congruent","green","green","","",""
"-1","-1","poldrack-single-stim","79","173701","0.0-79.0","f6f70853-1db6-438a-9998-59418d63ad4b","","500","500","fixation","","<div class = centerbox><div class = fixation>+</div></div>","none","500","test","","","","","","","","",""
"517","82","poldrack-categorize","80","176214","0.0-80.0","f6f70853-1db6-438a-9998-59418d63ad4b","","1500","250","stim","","<div class = centerbox><div class = stroop-stim style = ""color:red"">RED</div></div>","66,71,82","1500","test","true","82","500","congruent","red","red","","",""
"-1","-1","poldrack-single-stim","81","176975","0.0-81.0","f6f70853-1db6-438a-9998-59418d63ad4b","","500","500","fixation","","<div class = centerbox><div class = fixation>+</div></div>","none","500","test","","","","","","","","",""
"619","82","poldrack-categorize","82","179488","0.0-82.0","f6f70853-1db6-438a-9998-59418d63ad4b","","1500","250","stim","","<div class = centerbox><div class = stroop-stim style = ""color:red"">RED</div></div>","66,71,82","1500","test","true","82","500","congruent","red","red","","",""
"-1","-1","poldrack-single-stim","83","180248","0.0-83.0","f6f70853-1db6-438a-9998-59418d63ad4b","","500","500","fixation","","<div class = centerbox><div class = fixation>+</div></div>","none","500","test","","","","","","","","",""
"496","66","poldrack-categorize","84","182762","0.0-84.0","f6f70853-1db6-438a-9998-59418d63ad4b","","1500","250","stim","","<div class = centerbox><div class = stroop-stim style = ""color:green"">GREEN</div></div>","66,71,82","1500","test","false","71","500","congruent","green","green","","",""
"-1","-1","poldrack-single-stim","85","183522","0.0-85.0","f6f70853-1db6-438a-9998-59418d63ad4b","","500","500","fixation","","<div class = centerbox><div class = fixation>+</div></div>","none","500","test","","","","","","","","",""
"629","66","poldrack-categorize","86","186036","0.0-86.0","f6f70853-1db6-438a-9998-59418d63ad4b","","1500","250","stim","","<div class = centerbox><div class = stroop-stim style = ""color:blue"">BLUE</div></div>","66,71,82","1500","test","true","66","500","congruent","blue","blue","","",""
"-1","-1","poldrack-single-stim","87","186797","0.0-87.0","f6f70853-1db6-438a-9998-59418d63ad4b","","500","500","fixation","","<div class = centerbox><div class = fixation>+</div></div>","none","500","test","","","","","","","","",""
"978","66","poldrack-categorize","88","189308","0.0-88.0","f6f70853-1db6-438a-9998-59418d63ad4b","","1500","250","stim","","<div class = centerbox><div class = stroop-stim style = ""color:green"">BLUE</div></div>","66,71,82","1500","test","false","71","500","incongruent","green","blue","","",""
"-1","-1","poldrack-single-stim","89","190064","0.0-89.0","f6f70853-1db6-438a-9998-59418d63ad4b","","500","500","fixation","","<div class = centerbox><div class = fixation>+</div></div>","none","500","test","","","","","","","","",""
"736","82","poldrack-categorize","90","192577","0.0-90.0","f6f70853-1db6-438a-9998-59418d63ad4b","","1500","250","stim","","<div class = centerbox><div class = stroop-stim style = ""color:red"">GREEN</div></div>","66,71,82","1500","test","true","82","500","incongruent","red","green","","",""
"-1","-1","poldrack-single-stim","91","193338","0.0-91.0","f6f70853-1db6-438a-9998-59418d63ad4b","","500","500","fixation","","<div class = centerbox><div class = fixation>+</div></div>","none","500","test","","","","","","","","",""
"973","71","poldrack-categorize","92","195851","0.0-92.0","f6f70853-1db6-438a-9998-59418d63ad4b","","1500","250","stim","","<div class = centerbox><div class = stroop-stim style = ""color:green"">RED</div></div>","66,71,82","1500","test","true","71","500","incongruent","green","red","","",""
"-1","-1","poldrack-single-stim","93","196612","0.0-93.0","f6f70853-1db6-438a-9998-59418d63ad4b","","500","500","fixation","","<div class = centerbox><div class = fixation>+</div></div>","none","500","test","","","","","","","","",""
"614","82","poldrack-categorize","94","199122","0.0-94.0","f6f70853-1db6-438a-9998-59418d63ad4b","","1500","250","stim","","<div class = centerbox><div class = stroop-stim style = ""color:red"">BLUE</div></div>","66,71,82","1500","test","true","82","500","incongruent","red","blue","","",""
"-1","-1","poldrack-single-stim","95","199880","0.0-95.0","f6f70853-1db6-438a-9998-59418d63ad4b","","500","500","fixation","","<div class = centerbox><div class = fixation>+</div></div>","none","500","test","","","","","","","","",""
"830","66","poldrack-categorize","96","202393","0.0-96.0","f6f70853-1db6-438a-9998-59418d63ad4b","","1500","250","stim","","<div class = centerbox><div class = stroop-stim style = ""color:blue"">BLUE</div></div>","66,71,82","1500","test","true","66","500","congruent","blue","blue","","",""
"-1","-1","poldrack-single-stim","97","203154","0.0-97.0","f6f70853-1db6-438a-9998-59418d63ad4b","","500","500","fixation","","<div class = centerbox><div class = fixation>+</div></div>","none","500","test","","","","","","","","",""
"752","82","poldrack-categorize","98","205667","0.0-98.0","f6f70853-1db6-438a-9998-59418d63ad4b","","1500","250","stim","","<div class = centerbox><div class = stroop-stim style = ""color:red"">GREEN</div></div>","66,71,82","1500","test","true","82","500","incongruent","red","green","","",""
"-1","-1","poldrack-single-stim","99","206427","0.0-99.0","f6f70853-1db6-438a-9998-59418d63ad4b","","500","500","fixation","","<div class = centerbox><div class = fixation>+</div></div>","none","500","test","","","","","","","","",""
"618","82","poldrack-categorize","100","208937","0.0-100.0","f6f70853-1db6-438a-9998-59418d63ad4b","","1500","250","stim","","<div class = centerbox><div class = stroop-stim style = ""color:red"">RED</div></div>","66,71,82","1500","test","true","82","500","congruent","red","red","","",""
"-1","-1","poldrack-single-stim","101","209695","0.0-101.0","f6f70853-1db6-438a-9998-59418d63ad4b","","500","500","fixation","","<div class = centerbox><div class = fixation>+</div></div>","none","500","test","","","","","","","","",""
"893","66","poldrack-categorize","102","212209","0.0-102.0","f6f70853-1db6-438a-9998-59418d63ad4b","","1500","250","stim","","<div class = centerbox><div class = stroop-stim style = ""color:green"">RED</div></div>","66,71,82","1500","test","false","71","500","incongruent","green","red","","",""
"-1","-1","poldrack-single-stim","103","212969","0.0-103.0","f6f70853-1db6-438a-9998-59418d63ad4b","","500","500","fixation","","<div class = centerbox><div class = fixation>+</div></div>","none","500","test","","","","","","","","",""
"861","66","poldrack-categorize","104","215482","0.0-104.0","f6f70853-1db6-438a-9998-59418d63ad4b","","1500","250","stim","","<div class = centerbox><div class = stroop-stim style = ""color:blue"">RED</div></div>","66,71,82","1500","test","true","66","500","incongruent","blue","red","","",""
"-1","-1","poldrack-single-stim","105","216243","0.0-105.0","f6f70853-1db6-438a-9998-59418d63ad4b","","500","500","fixation","","<div class = centerbox><div class = fixation>+</div></div>","none","500","test","","","","","","","","",""
"601","71","poldrack-categorize","106","218756","0.0-106.0","f6f70853-1db6-438a-9998-59418d63ad4b","","1500","250","stim","","<div class = centerbox><div class = stroop-stim style = ""color:green"">RED</div></div>","66,71,82","1500","test","true","71","500","incongruent","green","red","","",""
"-1","-1","poldrack-single-stim","107","219517","0.0-107.0","f6f70853-1db6-438a-9998-59418d63ad4b","","500","500","fixation","","<div class = centerbox><div class = fixation>+</div></div>","none","500","test","","","","","","","","",""
"645","82","poldrack-categorize","108","222030","0.0-108.0","f6f70853-1db6-438a-9998-59418d63ad4b","","1500","250","stim","","<div class = centerbox><div class = stroop-stim style = ""color:red"">RED</div></div>","66,71,82","1500","test","true","82","500","congruent","red","red","","",""
"-1","-1","poldrack-single-stim","109","222791","0.0-109.0","f6f70853-1db6-438a-9998-59418d63ad4b","","500","500","fixation","","<div class = centerbox><div class = fixation>+</div></div>","none","500","test","","","","","","","","",""
"704","82","poldrack-categorize","110","225304","0.0-110.0","f6f70853-1db6-438a-9998-59418d63ad4b","","1500","250","stim","","<div class = centerbox><div class = stroop-stim style = ""color:red"">RED</div></div>","66,71,82","1500","test","true","82","500","congruent","red","red","","",""
"-1","-1","poldrack-single-stim","111","226059","0.0-111.0","f6f70853-1db6-438a-9998-59418d63ad4b","","500","500","fixation","","<div class = centerbox><div class = fixation>+</div></div>","none","500","test","","","","","","","","",""
"1022","66","poldrack-categorize","112","228572","0.0-112.0","f6f70853-1db6-438a-9998-59418d63ad4b","","1500","250","stim","","<div class = centerbox><div class = stroop-stim style = ""color:blue"">RED</div></div>","66,71,82","1500","test","true","66","500","incongruent","blue","red","","",""
"-1","-1","poldrack-single-stim","113","229327","0.0-113.0","f6f70853-1db6-438a-9998-59418d63ad4b","","500","500","fixation","","<div class = centerbox><div class = fixation>+</div></div>","none","500","test","","","","","","","","",""
"634","66","poldrack-categorize","114","231840","0.0-114.0","f6f70853-1db6-438a-9998-59418d63ad4b","","1500","250","stim","","<div class = centerbox><div class = stroop-stim style = ""color:blue"">BLUE</div></div>","66,71,82","1500","test","true","66","500","congruent","blue","blue","","",""
"-1","-1","poldrack-single-stim","115","232600","0.0-115.0","f6f70853-1db6-438a-9998-59418d63ad4b","","500","500","fixation","","<div class = centerbox><div class = fixation>+</div></div>","none","500","test","","","","","","","","",""
"570","71","poldrack-categorize","116","235108","0.0-116.0","f6f70853-1db6-438a-9998-59418d63ad4b","","1500","250","stim","","<div class = centerbox><div class = stroop-stim style = ""color:green"">BLUE</div></div>","66,71,82","1500","test","true","71","500","incongruent","green","blue","","",""
"-1","-1","poldrack-single-stim","117","235868","0.0-117.0","f6f70853-1db6-438a-9998-59418d63ad4b","","500","500","fixation","","<div class = centerbox><div class = fixation>+</div></div>","none","500","test","","","","","","","","",""
"553","71","poldrack-categorize","118","238382","0.0-118.0","f6f70853-1db6-438a-9998-59418d63ad4b","","1500","250","stim","","<div class = centerbox><div class = stroop-stim style = ""color:green"">BLUE</div></div>","66,71,82","1500","test","true","71","500","incongruent","green","blue","","",""
"-1","-1","poldrack-single-stim","119","239137","0.0-119.0","f6f70853-1db6-438a-9998-59418d63ad4b","","500","500","fixation","","<div class = centerbox><div class = fixation>+</div></div>","none","500","test","","","","","","","","",""
"579","71","poldrack-categorize","120","241650","0.0-120.0","f6f70853-1db6-438a-9998-59418d63ad4b","","1500","250","stim","","<div class = centerbox><div class = stroop-stim style = ""color:green"">GREEN</div></div>","66,71,82","1500","test","true","71","500","congruent","green","green","","",""
"-1","-1","poldrack-single-stim","121","242410","0.0-121.0","f6f70853-1db6-438a-9998-59418d63ad4b","","500","500","fixation","","<div class = centerbox><div class = fixation>+</div></div>","none","500","test","","","","","","","","",""
"671","66","poldrack-categorize","122","244923","0.0-122.0","f6f70853-1db6-438a-9998-59418d63ad4b","","1500","250","stim","","<div class = centerbox><div class = stroop-stim style = ""color:blue"">BLUE</div></div>","66,71,82","1500","test","true","66","500","congruent","blue","blue","","",""
"-1","-1","poldrack-single-stim","123","245684","0.0-123.0","f6f70853-1db6-438a-9998-59418d63ad4b","","500","500","fixation","","<div class = centerbox><div class = fixation>+</div></div>","none","500","test","","","","","","","","",""
"590","66","poldrack-categorize","124","248197","0.0-124.0","f6f70853-1db6-438a-9998-59418d63ad4b","","1500","250","stim","","<div class = centerbox><div class = stroop-stim style = ""color:blue"">BLUE</div></div>","66,71,82","1500","test","true","66","500","congruent","blue","blue","","",""
"-1","-1","poldrack-single-stim","125","248958","0.0-125.0","f6f70853-1db6-438a-9998-59418d63ad4b","","500","500","fixation","","<div class = centerbox><div class = fixation>+</div></div>","none","500","test","","","","","","","","",""
"590","66","poldrack-categorize","126","251471","0.0-126.0","f6f70853-1db6-438a-9998-59418d63ad4b","","1500","250","stim","","<div class = centerbox><div class = stroop-stim style = ""color:blue"">BLUE</div></div>","66,71,82","1500","test","true","66","500","congruent","blue","blue","","",""
"-1","-1","poldrack-single-stim","127","252228","0.0-127.0","f6f70853-1db6-438a-9998-59418d63ad4b","","500","500","fixation","","<div class = centerbox><div class = fixation>+</div></div>","none","500","test","","","","","","","","",""
"639","82","poldrack-categorize","128","254739","0.0-128.0","f6f70853-1db6-438a-9998-59418d63ad4b","","1500","250","stim","","<div class = centerbox><div class = stroop-stim style = ""color:red"">RED</div></div>","66,71,82","1500","test","true","82","500","congruent","red","red","","",""
"-1","-1","poldrack-single-stim","129","255499","0.0-129.0","f6f70853-1db6-438a-9998-59418d63ad4b","","500","500","fixation","","<div class = centerbox><div class = fixation>+</div></div>","none","500","test","","","","","","","","",""
"620","71","poldrack-categorize","130","258013","0.0-130.0","f6f70853-1db6-438a-9998-59418d63ad4b","","1500","250","stim","","<div class = centerbox><div class = stroop-stim style = ""color:green"">GREEN</div></div>","66,71,82","1500","test","true","71","500","congruent","green","green","","",""
"-1","-1","poldrack-single-stim","131","258774","0.0-131.0","f6f70853-1db6-438a-9998-59418d63ad4b","","500","500","fixation","","<div class = centerbox><div class = fixation>+</div></div>","none","500","test","","","","","","","","",""
"811","82","poldrack-categorize","132","261287","0.0-132.0","f6f70853-1db6-438a-9998-59418d63ad4b","","1500","250","stim","","<div class = centerbox><div class = stroop-stim style = ""color:red"">BLUE</div></div>","66,71,82","1500","test","true","82","500","incongruent","red","blue","","",""
"-1","-1","poldrack-single-stim","133","262047","0.0-133.0","f6f70853-1db6-438a-9998-59418d63ad4b","","500","500","fixation","","<div class = centerbox><div class = fixation>+</div></div>","none","500","test","","","","","","","","",""
"767","71","poldrack-categorize","134","264560","0.0-134.0","f6f70853-1db6-438a-9998-59418d63ad4b","","1500","250","stim","","<div class = centerbox><div class = stroop-stim style = ""color:green"">RED</div></div>","66,71,82","1500","test","true","71","500","incongruent","green","red","","",""
"-1","-1","poldrack-single-stim","135","265321","0.0-135.0","f6f70853-1db6-438a-9998-59418d63ad4b","","500","500","fixation","","<div class = centerbox><div class = fixation>+</div></div>","none","500","test","","","","","","","","",""
"698","82","poldrack-categorize","136","267834","0.0-136.0","f6f70853-1db6-438a-9998-59418d63ad4b","","1500","250","stim","","<div class = centerbox><div class = stroop-stim style = ""color:red"">RED</div></div>","66,71,82","1500","test","true","82","500","congruent","red","red","","",""
"-1","-1","poldrack-single-stim","137","268595","0.0-137.0","f6f70853-1db6-438a-9998-59418d63ad4b","","500","500","fixation","","<div class = centerbox><div class = fixation>+</div></div>","none","500","test","","","","","","","","",""
"721","71","poldrack-categorize","138","271108","0.0-138.0","f6f70853-1db6-438a-9998-59418d63ad4b","","1500","250","stim","","<div class = centerbox><div class = stroop-stim style = ""color:green"">GREEN</div></div>","66,71,82","1500","test","true","71","500","congruent","green","green","","",""
"-1","-1","poldrack-single-stim","139","271867","0.0-139.0","f6f70853-1db6-438a-9998-59418d63ad4b","","500","500","fixation","","<div class = centerbox><div class = fixation>+</div></div>","none","500","test","","","","","","","","",""
"946","82","poldrack-categorize","140","274382","0.0-140.0","f6f70853-1db6-438a-9998-59418d63ad4b","","1500","250","stim","","<div class = centerbox><div class = stroop-stim style = ""color:red"">BLUE</div></div>","66,71,82","1500","test","true","82","500","incongruent","red","blue","","",""
"-1","-1","poldrack-single-stim","141","275143","0.0-141.0","f6f70853-1db6-438a-9998-59418d63ad4b","","500","500","fixation","","<div class = centerbox><div class = fixation>+</div></div>","none","500","test","","","","","","","","",""
"788","82","poldrack-categorize","142","277650","0.0-142.0","f6f70853-1db6-438a-9998-59418d63ad4b","","1500","250","stim","","<div class = centerbox><div class = stroop-stim style = ""color:red"">GREEN</div></div>","66,71,82","1500","test","true","82","500","incongruent","red","green","","",""
"-1","-1","poldrack-single-stim","143","278411","0.0-143.0","f6f70853-1db6-438a-9998-59418d63ad4b","","500","500","fixation","","<div class = centerbox><div class = fixation>+</div></div>","none","500","test","","","","","","","","",""
"872","66","poldrack-categorize","144","280918","0.0-144.0","f6f70853-1db6-438a-9998-59418d63ad4b","","1500","250","stim","","<div class = centerbox><div class = stroop-stim style = ""color:blue"">BLUE</div></div>","66,71,82","1500","test","true","66","500","congruent","blue","blue","","",""
"-1","-1","poldrack-single-stim","145","281679","0.0-145.0","f6f70853-1db6-438a-9998-59418d63ad4b","","500","500","fixation","","<div class = centerbox><div class = fixation>+</div></div>","none","500","test","","","","","","","","",""
"1024","71","poldrack-categorize","146","284192","0.0-146.0","f6f70853-1db6-438a-9998-59418d63ad4b","","1500","250","stim","","<div class = centerbox><div class = stroop-stim style = ""color:green"">BLUE</div></div>","66,71,82","1500","test","true","71","500","incongruent","green","blue","","",""
"-1","-1","poldrack-single-stim","147","284952","0.0-147.0","f6f70853-1db6-438a-9998-59418d63ad4b","","500","500","fixation","","<div class = centerbox><div class = fixation>+</div></div>","none","500","test","","","","","","","","",""
"711","71","poldrack-categorize","148","287460","0.0-148.0","f6f70853-1db6-438a-9998-59418d63ad4b","","1500","250","stim","","<div class = centerbox><div class = stroop-stim style = ""color:green"">BLUE</div></div>","66,71,82","1500","test","true","71","500","incongruent","green","blue","","",""
"-1","-1","poldrack-single-stim","149","288220","0.0-149.0","f6f70853-1db6-438a-9998-59418d63ad4b","","500","500","fixation","","<div class = centerbox><div class = fixation>+</div></div>","none","500","test","","","","","","","","",""
"793","66","poldrack-categorize","150","290734","0.0-150.0","f6f70853-1db6-438a-9998-59418d63ad4b","","1500","250","stim","","<div class = centerbox><div class = stroop-stim style = ""color:blue"">BLUE</div></div>","66,71,82","1500","test","true","66","500","congruent","blue","blue","","",""
"-1","-1","poldrack-single-stim","151","291494","0.0-151.0","f6f70853-1db6-438a-9998-59418d63ad4b","","500","500","fixation","","<div class = centerbox><div class = fixation>+</div></div>","none","500","test","","","","","","","","",""
"683","82","poldrack-categorize","152","294007","0.0-152.0","f6f70853-1db6-438a-9998-59418d63ad4b","","1500","250","stim","","<div class = centerbox><div class = stroop-stim style = ""color:red"">RED</div></div>","66,71,82","1500","test","true","82","500","congruent","red","red","","",""
"-1","-1","poldrack-single-stim","153","294770","0.0-153.0","f6f70853-1db6-438a-9998-59418d63ad4b","","500","500","fixation","","<div class = centerbox><div class = fixation>+</div></div>","none","500","test","","","","","","","","",""
"749","71","poldrack-categorize","154","297281","0.0-154.0","f6f70853-1db6-438a-9998-59418d63ad4b","","1500","250","stim","","<div class = centerbox><div class = stroop-stim style = ""color:green"">RED</div></div>","66,71,82","1500","test","true","71","500","incongruent","green","red","","",""
"-1","-1","poldrack-single-stim","155","298042","0.0-155.0","f6f70853-1db6-438a-9998-59418d63ad4b","","500","500","fixation","","<div class = centerbox><div class = fixation>+</div></div>","none","500","test","","","","","","","","",""
"1076","71","poldrack-categorize","156","300555","0.0-156.0","f6f70853-1db6-438a-9998-59418d63ad4b","","1500","250","stim","","<div class = centerbox><div class = stroop-stim style = ""color:green"">RED</div></div>","66,71,82","1500","test","true","71","500","incongruent","green","red","","",""
"-1","-1","poldrack-single-stim","157","301316","0.0-157.0","f6f70853-1db6-438a-9998-59418d63ad4b","","500","500","fixation","","<div class = centerbox><div class = fixation>+</div></div>","none","500","test","","","","","","","","",""
"692","82","poldrack-categorize","158","303829","0.0-158.0","f6f70853-1db6-438a-9998-59418d63ad4b","","1500","250","stim","","<div class = centerbox><div class = stroop-stim style = ""color:red"">RED</div></div>","66,71,82","1500","test","true","82","500","congruent","red","red","","",""
"-1","-1","poldrack-single-stim","159","304589","0.0-159.0","f6f70853-1db6-438a-9998-59418d63ad4b","","500","500","fixation","","<div class = centerbox><div class = fixation>+</div></div>","none","500","test","","","","","","","","",""
"638","71","poldrack-categorize","160","307103","0.0-160.0","f6f70853-1db6-438a-9998-59418d63ad4b","","1500","250","stim","","<div class = centerbox><div class = stroop-stim style = ""color:green"">GREEN</div></div>","66,71,82","1500","test","true","71","500","congruent","green","green","","",""
"-1","-1","poldrack-single-stim","161","307863","0.0-161.0","f6f70853-1db6-438a-9998-59418d63ad4b","","500","500","fixation","","<div class = centerbox><div class = fixation>+</div></div>","none","500","test","","","","","","","","",""
"849","66","poldrack-categorize","162","310377","0.0-162.0","f6f70853-1db6-438a-9998-59418d63ad4b","","1500","250","stim","","<div class = centerbox><div class = stroop-stim style = ""color:blue"">RED</div></div>","66,71,82","1500","test","true","66","500","incongruent","blue","red","","",""
"-1","-1","poldrack-single-stim","163","311133","0.0-163.0","f6f70853-1db6-438a-9998-59418d63ad4b","","500","500","fixation","","<div class = centerbox><div class = fixation>+</div></div>","none","500","test","","","","","","","","",""
"898","82","poldrack-categorize","164","313644","0.0-164.0","f6f70853-1db6-438a-9998-59418d63ad4b","","1500","250","stim","","<div class = centerbox><div class = stroop-stim style = ""color:red"">GREEN</div></div>","66,71,82","1500","test","true","82","500","incongruent","red","green","","",""
"-1","-1","poldrack-single-stim","165","314405","0.0-165.0","f6f70853-1db6-438a-9998-59418d63ad4b","","500","500","fixation","","<div class = centerbox><div class = fixation>+</div></div>","none","500","test","","","","","","","","",""
"889","66","poldrack-categorize","166","316918","0.0-166.0","f6f70853-1db6-438a-9998-59418d63ad4b","","1500","250","stim","","<div class = centerbox><div class = stroop-stim style = ""color:blue"">GREEN</div></div>","66,71,82","1500","test","true","66","500","incongruent","blue","green","","",""
"-1","-1","poldrack-single-stim","167","317677","0.0-167.0","f6f70853-1db6-438a-9998-59418d63ad4b","","500","500","fixation","","<div class = centerbox><div class = fixation>+</div></div>","none","500","test","","","","","","","","",""
"654","66","poldrack-categorize","168","320192","0.0-168.0","f6f70853-1db6-438a-9998-59418d63ad4b","","1500","250","stim","","<div class = centerbox><div class = stroop-stim style = ""color:blue"">GREEN</div></div>","66,71,82","1500","test","true","66","500","incongruent","blue","green","","",""
"-1","-1","poldrack-single-stim","169","320953","0.0-169.0","f6f70853-1db6-438a-9998-59418d63ad4b","","500","500","fixation","","<div class = centerbox><div class = fixation>+</div></div>","none","500","test","","","","","","","","",""
"665","82","poldrack-categorize","170","323466","0.0-170.0","f6f70853-1db6-438a-9998-59418d63ad4b","","1500","250","stim","","<div class = centerbox><div class = stroop-stim style = ""color:red"">GREEN</div></div>","66,71,82","1500","test","true","82","500","incongruent","red","green","","",""
"-1","-1","poldrack-single-stim","171","324226","0.0-171.0","f6f70853-1db6-438a-9998-59418d63ad4b","","500","500","fixation","","<div class = centerbox><div class = fixation>+</div></div>","none","500","test","","","","","","","","",""
"676","66","poldrack-categorize","172","326740","0.0-172.0","f6f70853-1db6-438a-9998-59418d63ad4b","","1500","250","stim","","<div class = centerbox><div class = stroop-stim style = ""color:blue"">BLUE</div></div>","66,71,82","1500","test","true","66","500","congruent","blue","blue","","",""
"-1","-1","poldrack-single-stim","173","327500","0.0-173.0","f6f70853-1db6-438a-9998-59418d63ad4b","","500","500","fixation","","<div class = centerbox><div class = fixation>+</div></div>","none","500","test","","","","","","","","",""
"622","66","poldrack-categorize","174","330013","0.0-174.0","f6f70853-1db6-438a-9998-59418d63ad4b","","1500","250","stim","","<div class = centerbox><div class = stroop-stim style = ""color:blue"">BLUE</div></div>","66,71,82","1500","test","true","66","500","congruent","blue","blue","","",""
"-1","-1","poldrack-single-stim","175","330768","0.0-175.0","f6f70853-1db6-438a-9998-59418d63ad4b","","500","500","fixation","","<div class = centerbox><div class = fixation>+</div></div>","none","500","test","","","","","","","","",""
"1052","71","poldrack-categorize","176","333282","0.0-176.0","f6f70853-1db6-438a-9998-59418d63ad4b","","1500","250","stim","","<div class = centerbox><div class = stroop-stim style = ""color:green"">RED</div></div>","66,71,82","1500","test","true","71","500","incongruent","green","red","","",""
"-1","-1","poldrack-single-stim","177","334042","0.0-177.0","f6f70853-1db6-438a-9998-59418d63ad4b","","500","500","fixation","","<div class = centerbox><div class = fixation>+</div></div>","none","500","test","","","","","","","","",""
"591","71","poldrack-categorize","178","336555","0.0-178.0","f6f70853-1db6-438a-9998-59418d63ad4b","","1500","250","stim","","<div class = centerbox><div class = stroop-stim style = ""color:green"">GREEN</div></div>","66,71,82","1500","test","true","71","500","congruent","green","green","","",""
"-1","-1","poldrack-single-stim","179","337316","0.0-179.0","f6f70853-1db6-438a-9998-59418d63ad4b","","500","500","fixation","","<div class = centerbox><div class = fixation>+</div></div>","none","500","test","","","","","","","","",""
"592","66","poldrack-categorize","180","339829","0.0-180.0","f6f70853-1db6-438a-9998-59418d63ad4b","","1500","250","stim","","<div class = centerbox><div class = stroop-stim style = ""color:blue"">BLUE</div></div>","66,71,82","1500","test","true","66","500","congruent","blue","blue","","",""
"-1","-1","poldrack-single-stim","181","340590","0.0-181.0","f6f70853-1db6-438a-9998-59418d63ad4b","","500","500","fixation","","<div class = centerbox><div class = fixation>+</div></div>","none","500","test","","","","","","","","",""
"706","66","poldrack-categorize","182","343103","0.0-182.0","f6f70853-1db6-438a-9998-59418d63ad4b","","1500","250","stim","","<div class = centerbox><div class = stroop-stim style = ""color:blue"">RED</div></div>","66,71,82","1500","test","true","66","500","incongruent","blue","red","","",""
"-1","-1","poldrack-single-stim","183","343863","0.0-183.0","f6f70853-1db6-438a-9998-59418d63ad4b","","500","500","fixation","","<div class = centerbox><div class = fixation>+</div></div>","none","500","test","","","","","","","","",""
"672","71","poldrack-categorize","184","346377","0.0-184.0","f6f70853-1db6-438a-9998-59418d63ad4b","","1500","250","stim","","<div class = centerbox><div class = stroop-stim style = ""color:green"">GREEN</div></div>","66,71,82","1500","test","true","71","500","congruent","green","green","","",""
"-1","-1","poldrack-single-stim","185","347137","0.0-185.0","f6f70853-1db6-438a-9998-59418d63ad4b","","500","500","fixation","","<div class = centerbox><div class = fixation>+</div></div>","none","500","test","","","","","","","","",""
"1032","66","poldrack-categorize","186","349650","0.0-186.0","f6f70853-1db6-438a-9998-59418d63ad4b","","1500","250","stim","","<div class = centerbox><div class = stroop-stim style = ""color:blue"">RED</div></div>","66,71,82","1500","test","true","66","500","incongruent","blue","red","","",""
"-1","-1","poldrack-single-stim","187","350411","0.0-187.0","f6f70853-1db6-438a-9998-59418d63ad4b","","500","500","fixation","","<div class = centerbox><div class = fixation>+</div></div>","none","500","test","","","","","","","","",""
"670","71","poldrack-categorize","188","352924","0.0-188.0","f6f70853-1db6-438a-9998-59418d63ad4b","","1500","250","stim","","<div class = centerbox><div class = stroop-stim style = ""color:green"">BLUE</div></div>","66,71,82","1500","test","true","71","500","incongruent","green","blue","","",""
"-1","-1","poldrack-single-stim","189","353685","0.0-189.0","f6f70853-1db6-438a-9998-59418d63ad4b","","500","500","fixation","","<div class = centerbox><div class = fixation>+</div></div>","none","500","test","","","","","","","","",""
"671","82","poldrack-categorize","190","356195","0.0-190.0","f6f70853-1db6-438a-9998-59418d63ad4b","","1500","250","stim","","<div class = centerbox><div class = stroop-stim style = ""color:red"">BLUE</div></div>","66,71,82","1500","test","true","82","500","incongruent","red","blue","","",""
"-1","-1","poldrack-single-stim","191","356953","0.0-191.0","f6f70853-1db6-438a-9998-59418d63ad4b","","500","500","fixation","","<div class = centerbox><div class = fixation>+</div></div>","none","500","test","","","","","","","","",""
"574","66","poldrack-categorize","192","359466","0.0-192.0","f6f70853-1db6-438a-9998-59418d63ad4b","","1500","250","stim","","<div class = centerbox><div class = stroop-stim style = ""color:blue"">BLUE</div></div>","66,71,82","1500","test","true","66","500","congruent","blue","blue","","",""
"-1","-1","poldrack-single-stim","193","360227","0.0-193.0","f6f70853-1db6-438a-9998-59418d63ad4b","","500","500","fixation","","<div class = centerbox><div class = fixation>+</div></div>","none","500","test","","","","","","","","",""
"676","66","poldrack-categorize","194","362740","0.0-194.0","f6f70853-1db6-438a-9998-59418d63ad4b","","1500","250","stim","","<div class = centerbox><div class = stroop-stim style = ""color:blue"">BLUE</div></div>","66,71,82","1500","test","true","66","500","congruent","blue","blue","","",""
"-1","-1","poldrack-single-stim","195","363500","0.0-195.0","f6f70853-1db6-438a-9998-59418d63ad4b","","500","500","fixation","","<div class = centerbox><div class = fixation>+</div></div>","none","500","test","","","","","","","","",""
"733","66","poldrack-categorize","196","366014","0.0-196.0","f6f70853-1db6-438a-9998-59418d63ad4b","","1500","250","stim","","<div class = centerbox><div class = stroop-stim style = ""color:blue"">GREEN</div></div>","66,71,82","1500","test","true","66","500","incongruent","blue","green","","",""
"-1","-1","poldrack-single-stim","197","366774","0.0-197.0","f6f70853-1db6-438a-9998-59418d63ad4b","","500","500","fixation","","<div class = centerbox><div class = fixation>+</div></div>","none","500","test","","","","","","","","",""
"878","82","poldrack-categorize","198","369287","0.0-198.0","f6f70853-1db6-438a-9998-59418d63ad4b","","1500","250","stim","","<div class = centerbox><div class = stroop-stim style = ""color:red"">RED</div></div>","66,71,82","1500","test","true","82","500","congruent","red","red","","",""
"-1","-1","poldrack-single-stim","199","370048","0.0-199.0","f6f70853-1db6-438a-9998-59418d63ad4b","","500","500","fixation","","<div class = centerbox><div class = fixation>+</div></div>","none","500","test","","","","","","","","",""
"722","71","poldrack-categorize","200","372561","0.0-200.0","f6f70853-1db6-438a-9998-59418d63ad4b","","1500","250","stim","","<div class = centerbox><div class = stroop-stim style = ""color:green"">BLUE</div></div>","66,71,82","1500","test","true","71","500","incongruent","green","blue","","",""
"-1","-1","poldrack-single-stim","201","373318","0.0-201.0","f6f70853-1db6-438a-9998-59418d63ad4b","","500","500","fixation","","<div class = centerbox><div class = fixation>+</div></div>","none","500","test","","","","","","","","",""
"603","66","poldrack-categorize","202","375829","0.0-202.0","f6f70853-1db6-438a-9998-59418d63ad4b","","1500","250","stim","","<div class = centerbox><div class = stroop-stim style = ""color:blue"">BLUE</div></div>","66,71,82","1500","test","true","66","500","congruent","blue","blue","","",""
"-1","-1","poldrack-single-stim","203","376584","0.0-203.0","f6f70853-1db6-438a-9998-59418d63ad4b","","500","500","fixation","","<div class = centerbox><div class = fixation>+</div></div>","none","500","test","","","","","","","","",""
"732","82","poldrack-categorize","204","379097","0.0-204.0","f6f70853-1db6-438a-9998-59418d63ad4b","","1500","250","stim","","<div class = centerbox><div class = stroop-stim style = ""color:red"">BLUE</div></div>","66,71,82","1500","test","true","82","500","incongruent","red","blue","","",""
"-1","-1","poldrack-single-stim","205","379858","0.0-205.0","f6f70853-1db6-438a-9998-59418d63ad4b","","500","500","fixation","","<div class = centerbox><div class = fixation>+</div></div>","none","500","test","","","","","","","","",""
"779","82","poldrack-categorize","206","382371","0.0-206.0","f6f70853-1db6-438a-9998-59418d63ad4b","","1500","250","stim","","<div class = centerbox><div class = stroop-stim style = ""color:red"">RED</div></div>","66,71,82","1500","test","true","82","500","congruent","red","red","","",""
"-1","-1","poldrack-single-stim","207","383132","0.0-207.0","f6f70853-1db6-438a-9998-59418d63ad4b","","500","500","fixation","","<div class = centerbox><div class = fixation>+</div></div>","none","500","test","","","","","","","","",""
"845","82","poldrack-categorize","208","385645","0.0-208.0","f6f70853-1db6-438a-9998-59418d63ad4b","","1500","250","stim","","<div class = centerbox><div class = stroop-stim style = ""color:red"">BLUE</div></div>","66,71,82","1500","test","true","82","500","incongruent","red","blue","","",""
"-1","-1","poldrack-single-stim","209","386400","0.0-209.0","f6f70853-1db6-438a-9998-59418d63ad4b","","500","500","fixation","","<div class = centerbox><div class = fixation>+</div></div>","none","500","test","","","","","","","","",""
"727","71","poldrack-categorize","210","388913","0.0-210.0","f6f70853-1db6-438a-9998-59418d63ad4b","","1500","250","stim","","<div class = centerbox><div class = stroop-stim style = ""color:green"">GREEN</div></div>","66,71,82","1500","test","true","71","500","congruent","green","green","","",""
"-1","-1","poldrack-single-stim","211","389673","0.0-211.0","f6f70853-1db6-438a-9998-59418d63ad4b","","500","500","fixation","","<div class = centerbox><div class = fixation>+</div></div>","none","500","test","","","","","","","","",""
"694","82","poldrack-categorize","212","392187","0.0-212.0","f6f70853-1db6-438a-9998-59418d63ad4b","","1500","250","stim","","<div class = centerbox><div class = stroop-stim style = ""color:red"">RED</div></div>","66,71,82","1500","test","true","82","500","congruent","red","red","","",""
"-1","-1","poldrack-single-stim","213","392947","0.0-213.0","f6f70853-1db6-438a-9998-59418d63ad4b","","500","500","fixation","","<div class = centerbox><div class = fixation>+</div></div>","none","500","test","","","","","","","","",""
"571","66","poldrack-categorize","214","395461","0.0-214.0","f6f70853-1db6-438a-9998-59418d63ad4b","","1500","250","stim","","<div class = centerbox><div class = stroop-stim style = ""color:blue"">BLUE</div></div>","66,71,82","1500","test","true","66","500","congruent","blue","blue","","",""
"-1","-1","poldrack-single-stim","215","396221","0.0-215.0","f6f70853-1db6-438a-9998-59418d63ad4b","","500","500","fixation","","<div class = centerbox><div class = fixation>+</div></div>","none","500","test","","","","","","","","",""
"650","66","poldrack-categorize","216","398734","0.0-216.0","f6f70853-1db6-438a-9998-59418d63ad4b","","1500","250","stim","","<div class = centerbox><div class = stroop-stim style = ""color:blue"">BLUE</div></div>","66,71,82","1500","test","true","66","500","congruent","blue","blue","","",""
"-1","-1","poldrack-single-stim","217","399495","0.0-217.0","f6f70853-1db6-438a-9998-59418d63ad4b","","500","500","fixation","","<div class = centerbox><div class = fixation>+</div></div>","none","500","test","","","","","","","","",""
"706","71","poldrack-categorize","218","402006","0.0-218.0","f6f70853-1db6-438a-9998-59418d63ad4b","","1500","250","stim","","<div class = centerbox><div class = stroop-stim style = ""color:green"">GREEN</div></div>","66,71,82","1500","test","true","71","500","congruent","green","green","","",""
"-1","-1","poldrack-single-stim","219","402763","0.0-219.0","f6f70853-1db6-438a-9998-59418d63ad4b","","500","500","fixation","","<div class = centerbox><div class = fixation>+</div></div>","none","500","test","","","","","","","","",""
"879","82","poldrack-categorize","220","405276","0.0-220.0","f6f70853-1db6-438a-9998-59418d63ad4b","","1500","250","stim","","<div class = centerbox><div class = stroop-stim style = ""color:red"">BLUE</div></div>","66,71,82","1500","test","true","82","500","incongruent","red","blue","","",""
"-1","-1","poldrack-single-stim","221","406037","0.0-221.0","f6f70853-1db6-438a-9998-59418d63ad4b","","500","500","fixation","","<div class = centerbox><div class = fixation>+</div></div>","none","500","test","","","","","","","","",""
"970","66","poldrack-categorize","222","408550","0.0-222.0","f6f70853-1db6-438a-9998-59418d63ad4b","","1500","250","stim","","<div class = centerbox><div class = stroop-stim style = ""color:blue"">GREEN</div></div>","66,71,82","1500","test","true","66","500","incongruent","blue","green","","",""
"-1","-1","poldrack-single-stim","223","409309","0.0-223.0","f6f70853-1db6-438a-9998-59418d63ad4b","","500","500","fixation","","<div class = centerbox><div class = fixation>+</div></div>","none","500","test","","","","","","","","",""
"903","82","poldrack-categorize","224","411824","0.0-224.0","f6f70853-1db6-438a-9998-59418d63ad4b","","1500","250","stim","","<div class = centerbox><div class = stroop-stim style = ""color:red"">GREEN</div></div>","66,71,82","1500","test","true","82","500","incongruent","red","green","","",""
"-1","-1","poldrack-single-stim","225","412584","0.0-225.0","f6f70853-1db6-438a-9998-59418d63ad4b","","500","500","fixation","","<div class = centerbox><div class = fixation>+</div></div>","none","500","test","","","","","","","","",""
"948","66","poldrack-categorize","226","415092","0.0-226.0","f6f70853-1db6-438a-9998-59418d63ad4b","","1500","250","stim","","<div class = centerbox><div class = stroop-stim style = ""color:blue"">GREEN</div></div>","66,71,82","1500","test","true","66","500","incongruent","blue","green","","",""
"-1","-1","poldrack-single-stim","227","415852","0.0-227.0","f6f70853-1db6-438a-9998-59418d63ad4b","","500","500","fixation","","<div class = centerbox><div class = fixation>+</div></div>","none","500","test","","","","","","","","",""
"885","71","poldrack-categorize","228","418365","0.0-228.0","f6f70853-1db6-438a-9998-59418d63ad4b","","1500","250","stim","","<div class = centerbox><div class = stroop-stim style = ""color:green"">GREEN</div></div>","66,71,82","1500","test","true","71","500","congruent","green","green","","",""
"-1","-1","poldrack-single-stim","229","419123","0.0-229.0","f6f70853-1db6-438a-9998-59418d63ad4b","","500","500","fixation","","<div class = centerbox><div class = fixation>+</div></div>","none","500","test","","","","","","","","",""
"665","71","poldrack-categorize","230","421634","0.0-230.0","f6f70853-1db6-438a-9998-59418d63ad4b","","1500","250","stim","","<div class = centerbox><div class = stroop-stim style = ""color:green"">GREEN</div></div>","66,71,82","1500","test","true","71","500","congruent","green","green","","",""
"-1","-1","poldrack-single-stim","231","422394","0.0-231.0","f6f70853-1db6-438a-9998-59418d63ad4b","","500","500","fixation","","<div class = centerbox><div class = fixation>+</div></div>","none","500","test","","","","","","","","",""
"676","71","poldrack-categorize","232","424902","0.0-232.0","f6f70853-1db6-438a-9998-59418d63ad4b","","1500","250","stim","","<div class = centerbox><div class = stroop-stim style = ""color:green"">GREEN</div></div>","66,71,82","1500","test","true","71","500","congruent","green","green","","",""
"-1","-1","poldrack-single-stim","233","425662","0.0-233.0","f6f70853-1db6-438a-9998-59418d63ad4b","","500","500","fixation","","<div class = centerbox><div class = fixation>+</div></div>","none","500","test","","","","","","","","",""
"907","66","poldrack-categorize","234","428175","0.0-234.0","f6f70853-1db6-438a-9998-59418d63ad4b","","1500","250","stim","","<div class = centerbox><div class = stroop-stim style = ""color:blue"">RED</div></div>","66,71,82","1500","test","true","66","500","incongruent","blue","red","","",""
"-1","-1","poldrack-single-stim","235","428936","0.0-235.0","f6f70853-1db6-438a-9998-59418d63ad4b","","500","500","fixation","","<div class = centerbox><div class = fixation>+</div></div>","none","500","test","","","","","","","","",""
"729","82","poldrack-categorize","236","431449","0.0-236.0","f6f70853-1db6-438a-9998-59418d63ad4b","","1500","250","stim","","<div class = centerbox><div class = stroop-stim style = ""color:red"">RED</div></div>","66,71,82","1500","test","true","82","500","congruent","red","red","","",""
"-1","-1","poldrack-single-stim","237","432210","0.0-237.0","f6f70853-1db6-438a-9998-59418d63ad4b","","500","500","fixation","","<div class = centerbox><div class = fixation>+</div></div>","none","500","test","","","","","","","","",""
"874","82","poldrack-categorize","238","434723","0.0-238.0","f6f70853-1db6-438a-9998-59418d63ad4b","","1500","250","stim","","<div class = centerbox><div class = stroop-stim style = ""color:red"">RED</div></div>","66,71,82","1500","test","true","82","500","congruent","red","red","","",""
"-1","-1","poldrack-single-stim","239","435479","0.0-239.0","f6f70853-1db6-438a-9998-59418d63ad4b","","500","500","fixation","","<div class = centerbox><div class = fixation>+</div></div>","none","500","test","","","","","","","","",""
"665","82","poldrack-categorize","240","437991","0.0-240.0","f6f70853-1db6-438a-9998-59418d63ad4b","","1500","250","stim","","<div class = centerbox><div class = stroop-stim style = ""color:red"">RED</div></div>","66,71,82","1500","test","true","82","500","congruent","red","red","","",""
"-1","-1","poldrack-single-stim","241","438751","0.0-241.0","f6f70853-1db6-438a-9998-59418d63ad4b","","500","500","fixation","","<div class = centerbox><div class = fixation>+</div></div>","none","500","test","","","","","","","","",""
"983","71","poldrack-categorize","242","441265","0.0-242.0","f6f70853-1db6-438a-9998-59418d63ad4b","","1500","250","stim","","<div class = centerbox><div class = stroop-stim style = ""color:green"">RED</div></div>","66,71,82","1500","test","true","71","500","incongruent","green","red","","",""
"-1","-1","poldrack-single-stim","243","442025","0.0-243.0","f6f70853-1db6-438a-9998-59418d63ad4b","","500","500","fixation","","<div class = centerbox><div class = fixation>+</div></div>","none","500","test","","","","","","","","",""
"734","82","poldrack-categorize","244","444533","0.0-244.0","f6f70853-1db6-438a-9998-59418d63ad4b","","1500","250","stim","","<div class = centerbox><div class = stroop-stim style = ""color:red"">BLUE</div></div>","66,71,82","1500","test","true","82","500","incongruent","red","blue","","",""
"125276","","survey-text","245","570076","0.0-246.0","f6f70853-1db6-438a-9998-59418d63ad4b","","","","post task questions","","","","","","","","","","","","{""Q0"":""Color words would flash across the screen in differently colored fonts. When a word was written in red font, I was to press the r button. When a word was written in blue font, I was to press the b button. When and word was written in green font, I was to press the g button"",""Q1"":""While I made some mistakes during the task, I felt fairly confident about performing the task.""}","",""
"-1","-1","poldrack-text","246","751070","0.0-247.0","f6f70853-1db6-438a-9998-59418d63ad4b","<div class = centerbox><p class = center-block-text>Thanks for completing this task!</p><p class = center-block-text>Press <strong>enter</strong> to continue.</p></div>","180000","0","end","","","","","","","","","","","","","stroop","true"
"361168","13","text","247","1112294","0.0-248.0","f6f70853-1db6-438a-9998-59418d63ad4b","","","","","","","","","","","","","","","","","",""
