rt,key_press,trial_type,trial_index,time_elapsed,internal_node_id,subject,text,block_duration,timing_post_trial,trial_id,view_history,stimulus,possible_responses,stim_duration,exp_stage,stim_place,stim_id,condition,correct,correct_response,responses,exp_id,feedback_duration,stim_color,stim_word,credit_var7135,13,text,0,7137,0.0-0.0,fed40ce7-fbf8-4f75-b74d-c8bb6081c49c,,,,,,,,,,,,,,,,,,,,2110,13,poldrack-text,389,403538,0.0-388.0-0.0,fed40ce7-fbf8-4f75-b74d-c8bb6081c49c,<div class = centerbox><p class = center-block-text>Done with instructions. Press <strong>enter</strong> to continue.</p></div>,2110,0,instruction,,,,,,,,,,,,,,,,53351,,poldrack-instructions,390,456889,0.0-388.0-1.0,fed40ce7-fbf8-4f75-b74d-c8bb6081c49c,,,,instruction,"[{""page_index"":0,""viewing_time"":53351}]",,,,,,,,,,,,,,,14170,13,poldrack-text,391,472066,0.0-389.0,fed40ce7-fbf8-4f75-b74d-c8bb6081c49c,"<div class = centerbox><p class = block-text>We will start with a few practice trials. Remember, press the key corresponding to the <strong>ink</strong> color of the word: ""r"" for words colored red, ""b"" for words colored blue, and ""g"" for words colored green.</p><p class = block-text>Press <strong>enter</strong> to begin practice.</p></div>",14170,1000,practice_intro,,,,,,,,,,,,,,,,-1,-1,poldrack-single-stim,392,473575,0.0-390.0,fed40ce7-fbf8-4f75-b74d-c8bb6081c49c,,500,500,fixation,,<div class = centerbox><div class = fixation>+</div></div>,none,500,practice,,,,,,,,,,,1253,82,poldrack-categorize,393,476081,0.0-391.0,fed40ce7-fbf8-4f75-b74d-c8bb6081c49c,,1500,250,stim,,"<div class = centerbox><div class = stroop-stim style = ""color:red"">RED</div></div>","66,71,82",1500,practice,,,congruent,TRUE,82,,,500,red,red,-1,-1,poldrack-single-stim,394,476842,0.0-392.0,fed40ce7-fbf8-4f75-b74d-c8bb6081c49c,,500,500,fixation,,<div class = centerbox><div class = fixation>+</div></div>,none,500,practice,,,,,,,,,,,1150,82,poldrack-categorize,395,479355,0.0-393.0,fed40ce7-fbf8-4f75-b74d-c8bb6081c49c,,1500,250,stim,,"<div class = centerbox><div class = stroop-stim style = ""color:red"">RED</div></div>","66,71,82",1500,practice,,,congruent,TRUE,82,,,500,red,red,-1,-1,poldrack-single-stim,396,480110,0.0-394.0,fed40ce7-fbf8-4f75-b74d-c8bb6081c49c,,500,500,fixation,,<div class = centerbox><div class = fixation>+</div></div>,none,500,practice,,,,,,,,,,,850,66,poldrack-categorize,397,482623,0.0-395.0,fed40ce7-fbf8-4f75-b74d-c8bb6081c49c,,1500,250,stim,,"<div class = centerbox><div class = stroop-stim style = ""color:blue"">BLUE</div></div>","66,71,82",1500,practice,,,congruent,TRUE,66,,,500,blue,blue,-1,-1,poldrack-single-stim,398,483384,0.0-396.0,fed40ce7-fbf8-4f75-b74d-c8bb6081c49c,,500,500,fixation,,<div class = centerbox><div class = fixation>+</div></div>,none,500,practice,,,,,,,,,,,897,71,poldrack-categorize,399,485896,0.0-397.0,fed40ce7-fbf8-4f75-b74d-c8bb6081c49c,,1500,250,stim,,"<div class = centerbox><div class = stroop-stim style = ""color:green"">RED</div></div>","66,71,82",1500,practice,,,incongruent,TRUE,71,,,500,green,red,-1,-1,poldrack-single-stim,400,486657,0.0-398.0,fed40ce7-fbf8-4f75-b74d-c8bb6081c49c,,500,500,fixation,,<div class = centerbox><div class = fixation>+</div></div>,none,500,practice,,,,,,,,,,,774,66,poldrack-categorize,401,489170,0.0-399.0,fed40ce7-fbf8-4f75-b74d-c8bb6081c49c,,1500,250,stim,,"<div class = centerbox><div class = stroop-stim style = ""color:blue"">BLUE</div></div>","66,71,82",1500,practice,,,congruent,TRUE,66,,,500,blue,blue,-1,-1,poldrack-single-stim,402,489931,0.0-400.0,fed40ce7-fbf8-4f75-b74d-c8bb6081c49c,,500,500,fixation,,<div class = centerbox><div class = fixation>+</div></div>,none,500,practice,,,,,,,,,,,684,71,poldrack-categorize,403,492444,0.0-401.0,fed40ce7-fbf8-4f75-b74d-c8bb6081c49c,,1500,250,stim,,"<div class = centerbox><div class = stroop-stim style = ""color:green"">GREEN</div></div>","66,71,82",1500,practice,,,congruent,TRUE,71,,,500,green,green,-1,-1,poldrack-single-stim,404,493199,0.0-402.0,fed40ce7-fbf8-4f75-b74d-c8bb6081c49c,,500,500,fixation,,<div class = centerbox><div class = fixation>+</div></div>,none,500,practice,,,,,,,,,,,1081,66,poldrack-categorize,405,495712,0.0-403.0,fed40ce7-fbf8-4f75-b74d-c8bb6081c49c,,1500,250,stim,,"<div class = centerbox><div class = stroop-stim style = ""color:blue"">GREEN</div></div>","66,71,82",1500,practice,,,incongruent,TRUE,66,,,500,blue,green,-1,-1,poldrack-single-stim,406,496472,0.0-404.0,fed40ce7-fbf8-4f75-b74d-c8bb6081c49c,,500,500,fixation,,<div class = centerbox><div class = fixation>+</div></div>,none,500,practice,,,,,,,,,,,719,82,poldrack-categorize,407,498985,0.0-405.0,fed40ce7-fbf8-4f75-b74d-c8bb6081c49c,,1500,250,stim,,"<div class = centerbox><div class = stroop-stim style = ""color:red"">BLUE</div></div>","66,71,82",1500,practice,,,incongruent,TRUE,82,,,500,red,blue,-1,-1,poldrack-single-stim,408,499746,0.0-406.0,fed40ce7-fbf8-4f75-b74d-c8bb6081c49c,,500,500,fixation,,<div class = centerbox><div class = fixation>+</div></div>,none,500,practice,,,,,,,,,,,972,71,poldrack-categorize,409,502259,0.0-407.0,fed40ce7-fbf8-4f75-b74d-c8bb6081c49c,,1500,250,stim,,"<div class = centerbox><div class = stroop-stim style = ""color:green"">GREEN</div></div>","66,71,82",1500,practice,,,congruent,TRUE,71,,,500,green,green,-1,-1,poldrack-single-stim,410,503014,0.0-408.0,fed40ce7-fbf8-4f75-b74d-c8bb6081c49c,,500,500,fixation,,<div class = centerbox><div class = fixation>+</div></div>,none,500,practice,,,,,,,,,,,751,66,poldrack-categorize,411,505527,0.0-409.0,fed40ce7-fbf8-4f75-b74d-c8bb6081c49c,,1500,250,stim,,"<div class = centerbox><div class = stroop-stim style = ""color:blue"">BLUE</div></div>","66,71,82",1500,practice,,,congruent,TRUE,66,,,500,blue,blue,-1,-1,poldrack-single-stim,412,506287,0.0-410.0,fed40ce7-fbf8-4f75-b74d-c8bb6081c49c,,500,500,fixation,,<div class = centerbox><div class = fixation>+</div></div>,none,500,practice,,,,,,,,,,,1191,71,poldrack-categorize,413,508801,0.0-411.0,fed40ce7-fbf8-4f75-b74d-c8bb6081c49c,,1500,250,stim,,"<div class = centerbox><div class = stroop-stim style = ""color:blue"">GREEN</div></div>","66,71,82",1500,practice,,,incongruent,FALSE,66,,,500,blue,green,-1,-1,poldrack-single-stim,414,509561,0.0-412.0,fed40ce7-fbf8-4f75-b74d-c8bb6081c49c,,500,500,fixation,,<div class = centerbox><div class = fixation>+</div></div>,none,500,practice,,,,,,,,,,,1011,82,poldrack-categorize,415,512074,0.0-413.0,fed40ce7-fbf8-4f75-b74d-c8bb6081c49c,,1500,250,stim,,"<div class = centerbox><div class = stroop-stim style = ""color:red"">BLUE</div></div>","66,71,82",1500,practice,,,incongruent,TRUE,82,,,500,red,blue,-1,-1,poldrack-single-stim,416,512834,0.0-414.0,fed40ce7-fbf8-4f75-b74d-c8bb6081c49c,,500,500,fixation,,<div class = centerbox><div class = fixation>+</div></div>,none,500,practice,,,,,,,,,,,1123,82,poldrack-categorize,417,515348,0.0-415.0,fed40ce7-fbf8-4f75-b74d-c8bb6081c49c,,1500,250,stim,,"<div class = centerbox><div class = stroop-stim style = ""color:red"">GREEN</div></div>","66,71,82",1500,practice,,,incongruent,TRUE,82,,,500,red,green,-1,-1,poldrack-single-stim,418,516108,0.0-416.0,fed40ce7-fbf8-4f75-b74d-c8bb6081c49c,,500,500,fixation,,<div class = centerbox><div class = fixation>+</div></div>,none,500,practice,,,,,,,,,,,1032,82,poldrack-categorize,419,518622,0.0-417.0,fed40ce7-fbf8-4f75-b74d-c8bb6081c49c,,1500,250,stim,,"<div class = centerbox><div class = stroop-stim style = ""color:red"">RED</div></div>","66,71,82",1500,practice,,,congruent,TRUE,82,,,500,red,red,-1,-1,poldrack-single-stim,420,519382,0.0-418.0,fed40ce7-fbf8-4f75-b74d-c8bb6081c49c,,500,500,fixation,,<div class = centerbox><div class = fixation>+</div></div>,none,500,practice,,,,,,,,,,,830,66,poldrack-categorize,421,521895,0.0-419.0,fed40ce7-fbf8-4f75-b74d-c8bb6081c49c,,1500,250,stim,,"<div class = centerbox><div class = stroop-stim style = ""color:blue"">BLUE</div></div>","66,71,82",1500,practice,,,congruent,TRUE,66,,,500,blue,blue,-1,-1,poldrack-single-stim,422,522656,0.0-420.0,fed40ce7-fbf8-4f75-b74d-c8bb6081c49c,,500,500,fixation,,<div class = centerbox><div class = fixation>+</div></div>,none,500,practice,,,,,,,,,,,1124,71,poldrack-categorize,423,525169,0.0-421.0,fed40ce7-fbf8-4f75-b74d-c8bb6081c49c,,1500,250,stim,,"<div class = centerbox><div class = stroop-stim style = ""color:green"">BLUE</div></div>","66,71,82",1500,practice,,,incongruent,TRUE,71,,,500,green,blue,-1,-1,poldrack-single-stim,424,525929,0.0-422.0,fed40ce7-fbf8-4f75-b74d-c8bb6081c49c,,500,500,fixation,,<div class = centerbox><div class = fixation>+</div></div>,none,500,practice,,,,,,,,,,,1050,66,poldrack-categorize,425,528443,0.0-423.0,fed40ce7-fbf8-4f75-b74d-c8bb6081c49c,,1500,250,stim,,"<div class = centerbox><div class = stroop-stim style = ""color:blue"">RED</div></div>","66,71,82",1500,practice,,,incongruent,TRUE,66,,,500,blue,red,-1,-1,poldrack-single-stim,426,529203,0.0-424.0,fed40ce7-fbf8-4f75-b74d-c8bb6081c49c,,500,500,fixation,,<div class = centerbox><div class = fixation>+</div></div>,none,500,practice,,,,,,,,,,,975,71,poldrack-categorize,427,531716,0.0-425.0,fed40ce7-fbf8-4f75-b74d-c8bb6081c49c,,1500,250,stim,,"<div class = centerbox><div class = stroop-stim style = ""color:green"">RED</div></div>","66,71,82",1500,practice,,,incongruent,TRUE,71,,,500,green,red,-1,-1,poldrack-single-stim,428,532477,0.0-426.0,fed40ce7-fbf8-4f75-b74d-c8bb6081c49c,,500,500,fixation,,<div class = centerbox><div class = fixation>+</div></div>,none,500,practice,,,,,,,,,,,941,71,poldrack-categorize,429,534990,0.0-427.0,fed40ce7-fbf8-4f75-b74d-c8bb6081c49c,,1500,250,stim,,"<div class = centerbox><div class = stroop-stim style = ""color:green"">GREEN</div></div>","66,71,82",1500,practice,,,congruent,TRUE,71,,,500,green,green,-1,-1,poldrack-single-stim,430,535750,0.0-428.0,fed40ce7-fbf8-4f75-b74d-c8bb6081c49c,,500,500,fixation,,<div class = centerbox><div class = fixation>+</div></div>,none,500,practice,,,,,,,,,,,508,82,poldrack-categorize,431,538264,0.0-429.0,fed40ce7-fbf8-4f75-b74d-c8bb6081c49c,,1500,250,stim,,"<div class = centerbox><div class = stroop-stim style = ""color:red"">RED</div></div>","66,71,82",1500,practice,,,congruent,TRUE,82,,,500,red,red,-1,-1,poldrack-single-stim,432,539024,0.0-430.0,fed40ce7-fbf8-4f75-b74d-c8bb6081c49c,,500,500,fixation,,<div class = centerbox><div class = fixation>+</div></div>,none,500,practice,,,,,,,,,,,905,71,poldrack-categorize,433,541537,0.0-431.0,fed40ce7-fbf8-4f75-b74d-c8bb6081c49c,,1500,250,stim,,"<div class = centerbox><div class = stroop-stim style = ""color:green"">GREEN</div></div>","66,71,82",1500,practice,,,congruent,TRUE,71,,,500,green,green,-1,-1,poldrack-single-stim,434,542298,0.0-432.0,fed40ce7-fbf8-4f75-b74d-c8bb6081c49c,,500,500,fixation,,<div class = centerbox><div class = fixation>+</div></div>,none,500,practice,,,,,,,,,,,912,66,poldrack-categorize,435,544811,0.0-433.0,fed40ce7-fbf8-4f75-b74d-c8bb6081c49c,,1500,250,stim,,"<div class = centerbox><div class = stroop-stim style = ""color:blue"">RED</div></div>","66,71,82",1500,practice,,,incongruent,TRUE,66,,,500,blue,red,-1,-1,poldrack-single-stim,436,545571,0.0-434.0,fed40ce7-fbf8-4f75-b74d-c8bb6081c49c,,500,500,fixation,,<div class = centerbox><div class = fixation>+</div></div>,none,500,practice,,,,,,,,,,,710,71,poldrack-categorize,437,548084,0.0-435.0,fed40ce7-fbf8-4f75-b74d-c8bb6081c49c,,1500,250,stim,,"<div class = centerbox><div class = stroop-stim style = ""color:green"">BLUE</div></div>","66,71,82",1500,practice,,,incongruent,TRUE,71,,,500,green,blue,-1,-1,poldrack-single-stim,438,548845,0.0-436.0,fed40ce7-fbf8-4f75-b74d-c8bb6081c49c,,500,500,fixation,,<div class = centerbox><div class = fixation>+</div></div>,none,500,practice,,,,,,,,,,,763,82,poldrack-categorize,439,551358,0.0-437.0,fed40ce7-fbf8-4f75-b74d-c8bb6081c49c,,1500,250,stim,,"<div class = centerbox><div class = stroop-stim style = ""color:red"">GREEN</div></div>","66,71,82",1500,practice,,,incongruent,TRUE,82,,,500,red,green,10027,13,poldrack-text,440,561641,0.0-439.0,fed40ce7-fbf8-4f75-b74d-c8bb6081c49c,<div class = centerbox><p class = center-block-text>We will now start the test. Respond exactly like you did during practice.</p><p class = center-block-text>Press <strong>enter</strong> to begin the test.</p></div>,10027,1000,test_intro,,,,,,,,,,,,,,,,-1,-1,poldrack-single-stim,441,563147,0.0-440.0,fed40ce7-fbf8-4f75-b74d-c8bb6081c49c,,500,500,fixation,,<div class = centerbox><div class = fixation>+</div></div>,none,500,test,,,,,,,,,,,684,82,poldrack-categorize,442,565660,0.0-441.0,fed40ce7-fbf8-4f75-b74d-c8bb6081c49c,,1500,250,stim,,"<div class = centerbox><div class = stroop-stim style = ""color:red"">RED</div></div>","66,71,82",1500,test,,,congruent,TRUE,82,,,500,red,red,-1,-1,poldrack-single-stim,443,566419,0.0-442.0,fed40ce7-fbf8-4f75-b74d-c8bb6081c49c,,500,500,fixation,,<div class = centerbox><div class = fixation>+</div></div>,none,500,test,,,,,,,,,,,615,66,poldrack-categorize,444,568928,0.0-443.0,fed40ce7-fbf8-4f75-b74d-c8bb6081c49c,,1500,250,stim,,"<div class = centerbox><div class = stroop-stim style = ""color:blue"">BLUE</div></div>","66,71,82",1500,test,,,congruent,TRUE,66,,,500,blue,blue,-1,-1,poldrack-single-stim,445,569688,0.0-444.0,fed40ce7-fbf8-4f75-b74d-c8bb6081c49c,,500,500,fixation,,<div class = centerbox><div class = fixation>+</div></div>,none,500,test,,,,,,,,,,,496,82,poldrack-categorize,446,572196,0.0-445.0,fed40ce7-fbf8-4f75-b74d-c8bb6081c49c,,1500,250,stim,,"<div class = centerbox><div class = stroop-stim style = ""color:red"">RED</div></div>","66,71,82",1500,test,,,congruent,TRUE,82,,,500,red,red,-1,-1,poldrack-single-stim,447,572956,0.0-446.0,fed40ce7-fbf8-4f75-b74d-c8bb6081c49c,,500,500,fixation,,<div class = centerbox><div class = fixation>+</div></div>,none,500,test,,,,,,,,,,,450,82,poldrack-categorize,448,575470,0.0-447.0,fed40ce7-fbf8-4f75-b74d-c8bb6081c49c,,1500,250,stim,,"<div class = centerbox><div class = stroop-stim style = ""color:red"">RED</div></div>","66,71,82",1500,test,,,congruent,TRUE,82,,,500,red,red,-1,-1,poldrack-single-stim,449,576230,0.0-448.0,fed40ce7-fbf8-4f75-b74d-c8bb6081c49c,,500,500,fixation,,<div class = centerbox><div class = fixation>+</div></div>,none,500,test,,,,,,,,,,,687,82,poldrack-categorize,450,578743,0.0-449.0,fed40ce7-fbf8-4f75-b74d-c8bb6081c49c,,1500,250,stim,,"<div class = centerbox><div class = stroop-stim style = ""color:red"">BLUE</div></div>","66,71,82",1500,test,,,incongruent,TRUE,82,,,500,red,blue,-1,-1,poldrack-single-stim,451,579504,0.0-450.0,fed40ce7-fbf8-4f75-b74d-c8bb6081c49c,,500,500,fixation,,<div class = centerbox><div class = fixation>+</div></div>,none,500,test,,,,,,,,,,,662,71,poldrack-categorize,452,582017,0.0-451.0,fed40ce7-fbf8-4f75-b74d-c8bb6081c49c,,1500,250,stim,,"<div class = centerbox><div class = stroop-stim style = ""color:green"">RED</div></div>","66,71,82",1500,test,,,incongruent,TRUE,71,,,500,green,red,-1,-1,poldrack-single-stim,453,582777,0.0-452.0,fed40ce7-fbf8-4f75-b74d-c8bb6081c49c,,500,500,fixation,,<div class = centerbox><div class = fixation>+</div></div>,none,500,test,,,,,,,,,,,508,82,poldrack-categorize,454,585290,0.0-453.0,fed40ce7-fbf8-4f75-b74d-c8bb6081c49c,,1500,250,stim,,"<div class = centerbox><div class = stroop-stim style = ""color:red"">BLUE</div></div>","66,71,82",1500,test,,,incongruent,TRUE,82,,,500,red,blue,-1,-1,poldrack-single-stim,455,586051,0.0-454.0,fed40ce7-fbf8-4f75-b74d-c8bb6081c49c,,500,500,fixation,,<div class = centerbox><div class = fixation>+</div></div>,none,500,test,,,,,,,,,,,418,66,poldrack-categorize,456,588561,0.0-455.0,fed40ce7-fbf8-4f75-b74d-c8bb6081c49c,,1500,250,stim,,"<div class = centerbox><div class = stroop-stim style = ""color:blue"">BLUE</div></div>","66,71,82",1500,test,,,congruent,TRUE,66,,,500,blue,blue,-1,-1,poldrack-single-stim,457,589319,0.0-456.0,fed40ce7-fbf8-4f75-b74d-c8bb6081c49c,,500,500,fixation,,<div class = centerbox><div class = fixation>+</div></div>,none,500,test,,,,,,,,,,,1309,82,poldrack-categorize,458,591832,0.0-457.0,fed40ce7-fbf8-4f75-b74d-c8bb6081c49c,,1500,250,stim,,"<div class = centerbox><div class = stroop-stim style = ""color:red"">GREEN</div></div>","66,71,82",1500,test,,,incongruent,TRUE,82,,,500,red,green,-1,-1,poldrack-single-stim,459,592593,0.0-458.0,fed40ce7-fbf8-4f75-b74d-c8bb6081c49c,,500,500,fixation,,<div class = centerbox><div class = fixation>+</div></div>,none,500,test,,,,,,,,,,,459,66,poldrack-categorize,460,595106,0.0-459.0,fed40ce7-fbf8-4f75-b74d-c8bb6081c49c,,1500,250,stim,,"<div class = centerbox><div class = stroop-stim style = ""color:blue"">BLUE</div></div>","66,71,82",1500,test,,,congruent,TRUE,66,,,500,blue,blue,-1,-1,poldrack-single-stim,461,595864,0.0-460.0,fed40ce7-fbf8-4f75-b74d-c8bb6081c49c,,500,500,fixation,,<div class = centerbox><div class = fixation>+</div></div>,none,500,test,,,,,,,,,,,495,82,poldrack-categorize,462,598374,0.0-461.0,fed40ce7-fbf8-4f75-b74d-c8bb6081c49c,,1500,250,stim,,"<div class = centerbox><div class = stroop-stim style = ""color:red"">RED</div></div>","66,71,82",1500,test,,,congruent,TRUE,82,,,500,red,red,-1,-1,poldrack-single-stim,463,599134,0.0-462.0,fed40ce7-fbf8-4f75-b74d-c8bb6081c49c,,500,500,fixation,,<div class = centerbox><div class = fixation>+</div></div>,none,500,test,,,,,,,,,,,638,71,poldrack-categorize,464,601647,0.0-463.0,fed40ce7-fbf8-4f75-b74d-c8bb6081c49c,,1500,250,stim,,"<div class = centerbox><div class = stroop-stim style = ""color:green"">GREEN</div></div>","66,71,82",1500,test,,,congruent,TRUE,71,,,500,green,green,-1,-1,poldrack-single-stim,465,602408,0.0-464.0,fed40ce7-fbf8-4f75-b74d-c8bb6081c49c,,500,500,fixation,,<div class = centerbox><div class = fixation>+</div></div>,none,500,test,,,,,,,,,,,852,82,poldrack-categorize,466,604921,0.0-465.0,fed40ce7-fbf8-4f75-b74d-c8bb6081c49c,,1500,250,stim,,"<div class = centerbox><div class = stroop-stim style = ""color:red"">BLUE</div></div>","66,71,82",1500,test,,,incongruent,TRUE,82,,,500,red,blue,-1,-1,poldrack-single-stim,467,605681,0.0-466.0,fed40ce7-fbf8-4f75-b74d-c8bb6081c49c,,500,500,fixation,,<div class = centerbox><div class = fixation>+</div></div>,none,500,test,,,,,,,,,,,1265,66,poldrack-categorize,468,608195,0.0-467.0,fed40ce7-fbf8-4f75-b74d-c8bb6081c49c,,1500,250,stim,,"<div class = centerbox><div class = stroop-stim style = ""color:blue"">RED</div></div>","66,71,82",1500,test,,,incongruent,TRUE,66,,,500,blue,red,-1,-1,poldrack-single-stim,469,608955,0.0-468.0,fed40ce7-fbf8-4f75-b74d-c8bb6081c49c,,500,500,fixation,,<div class = centerbox><div class = fixation>+</div></div>,none,500,test,,,,,,,,,,,656,66,poldrack-categorize,470,611468,0.0-469.0,fed40ce7-fbf8-4f75-b74d-c8bb6081c49c,,1500,250,stim,,"<div class = centerbox><div class = stroop-stim style = ""color:blue"">BLUE</div></div>","66,71,82",1500,test,,,congruent,TRUE,66,,,500,blue,blue,-1,-1,poldrack-single-stim,471,612229,0.0-470.0,fed40ce7-fbf8-4f75-b74d-c8bb6081c49c,,500,500,fixation,,<div class = centerbox><div class = fixation>+</div></div>,none,500,test,,,,,,,,,,,527,82,poldrack-categorize,472,614742,0.0-471.0,fed40ce7-fbf8-4f75-b74d-c8bb6081c49c,,1500,250,stim,,"<div class = centerbox><div class = stroop-stim style = ""color:red"">BLUE</div></div>","66,71,82",1500,test,,,incongruent,TRUE,82,,,500,red,blue,-1,-1,poldrack-single-stim,473,615502,0.0-472.0,fed40ce7-fbf8-4f75-b74d-c8bb6081c49c,,500,500,fixation,,<div class = centerbox><div class = fixation>+</div></div>,none,500,test,,,,,,,,,,,1331,71,poldrack-categorize,474,618016,0.0-473.0,fed40ce7-fbf8-4f75-b74d-c8bb6081c49c,,1500,250,stim,,"<div class = centerbox><div class = stroop-stim style = ""color:green"">GREEN</div></div>","66,71,82",1500,test,,,congruent,TRUE,71,,,500,green,green,-1,-1,poldrack-single-stim,475,618776,0.0-474.0,fed40ce7-fbf8-4f75-b74d-c8bb6081c49c,,500,500,fixation,,<div class = centerbox><div class = fixation>+</div></div>,none,500,test,,,,,,,,,,,971,66,poldrack-categorize,476,621289,0.0-475.0,fed40ce7-fbf8-4f75-b74d-c8bb6081c49c,,1500,250,stim,,"<div class = centerbox><div class = stroop-stim style = ""color:blue"">GREEN</div></div>","66,71,82",1500,test,,,incongruent,TRUE,66,,,500,blue,green,-1,-1,poldrack-single-stim,477,622048,0.0-476.0,fed40ce7-fbf8-4f75-b74d-c8bb6081c49c,,500,500,fixation,,<div class = centerbox><div class = fixation>+</div></div>,none,500,test,,,,,,,,,,,1171,66,poldrack-categorize,478,624554,0.0-477.0,fed40ce7-fbf8-4f75-b74d-c8bb6081c49c,,1500,250,stim,,"<div class = centerbox><div class = stroop-stim style = ""color:blue"">BLUE</div></div>","66,71,82",1500,test,,,congruent,TRUE,66,,,500,blue,blue,-1,-1,poldrack-single-stim,479,625308,0.0-478.0,fed40ce7-fbf8-4f75-b74d-c8bb6081c49c,,500,500,fixation,,<div class = centerbox><div class = fixation>+</div></div>,none,500,test,,,,,,,,,,,677,71,poldrack-categorize,480,627819,0.0-479.0,fed40ce7-fbf8-4f75-b74d-c8bb6081c49c,,1500,250,stim,,"<div class = centerbox><div class = stroop-stim style = ""color:green"">GREEN</div></div>","66,71,82",1500,test,,,congruent,TRUE,71,,,500,green,green,-1,-1,poldrack-single-stim,481,628574,0.0-480.0,fed40ce7-fbf8-4f75-b74d-c8bb6081c49c,,500,500,fixation,,<div class = centerbox><div class = fixation>+</div></div>,none,500,test,,,,,,,,,,,498,82,poldrack-categorize,482,631087,0.0-481.0,fed40ce7-fbf8-4f75-b74d-c8bb6081c49c,,1500,250,stim,,"<div class = centerbox><div class = stroop-stim style = ""color:red"">BLUE</div></div>","66,71,82",1500,test,,,incongruent,TRUE,82,,,500,red,blue,-1,-1,poldrack-single-stim,483,631848,0.0-482.0,fed40ce7-fbf8-4f75-b74d-c8bb6081c49c,,500,500,fixation,,<div class = centerbox><div class = fixation>+</div></div>,none,500,test,,,,,,,,,,,752,66,poldrack-categorize,484,634361,0.0-483.0,fed40ce7-fbf8-4f75-b74d-c8bb6081c49c,,1500,250,stim,,"<div class = centerbox><div class = stroop-stim style = ""color:blue"">RED</div></div>","66,71,82",1500,test,,,incongruent,TRUE,66,,,500,blue,red,-1,-1,poldrack-single-stim,485,635121,0.0-484.0,fed40ce7-fbf8-4f75-b74d-c8bb6081c49c,,500,500,fixation,,<div class = centerbox><div class = fixation>+</div></div>,none,500,test,,,,,,,,,,,462,82,poldrack-categorize,486,637633,0.0-485.0,fed40ce7-fbf8-4f75-b74d-c8bb6081c49c,,1500,250,stim,,"<div class = centerbox><div class = stroop-stim style = ""color:red"">RED</div></div>","66,71,82",1500,test,,,congruent,TRUE,82,,,500,red,red,-1,-1,poldrack-single-stim,487,638389,0.0-486.0,fed40ce7-fbf8-4f75-b74d-c8bb6081c49c,,500,500,fixation,,<div class = centerbox><div class = fixation>+</div></div>,none,500,test,,,,,,,,,,,466,66,poldrack-categorize,488,640902,0.0-487.0,fed40ce7-fbf8-4f75-b74d-c8bb6081c49c,,1500,250,stim,,"<div class = centerbox><div class = stroop-stim style = ""color:blue"">BLUE</div></div>","66,71,82",1500,test,,,congruent,TRUE,66,,,500,blue,blue,-1,-1,poldrack-single-stim,489,641661,0.0-488.0,fed40ce7-fbf8-4f75-b74d-c8bb6081c49c,,500,500,fixation,,<div class = centerbox><div class = fixation>+</div></div>,none,500,test,,,,,,,,,,,466,82,poldrack-categorize,490,644174,0.0-489.0,fed40ce7-fbf8-4f75-b74d-c8bb6081c49c,,1500,250,stim,,"<div class = centerbox><div class = stroop-stim style = ""color:red"">RED</div></div>","66,71,82",1500,test,,,congruent,TRUE,82,,,500,red,red,-1,-1,poldrack-single-stim,491,644931,0.0-490.0,fed40ce7-fbf8-4f75-b74d-c8bb6081c49c,,500,500,fixation,,<div class = centerbox><div class = fixation>+</div></div>,none,500,test,,,,,,,,,,,797,66,poldrack-categorize,492,647444,0.0-491.0,fed40ce7-fbf8-4f75-b74d-c8bb6081c49c,,1500,250,stim,,"<div class = centerbox><div class = stroop-stim style = ""color:blue"">GREEN</div></div>","66,71,82",1500,test,,,incongruent,TRUE,66,,,500,blue,green,-1,-1,poldrack-single-stim,493,648204,0.0-492.0,fed40ce7-fbf8-4f75-b74d-c8bb6081c49c,,500,500,fixation,,<div class = centerbox><div class = fixation>+</div></div>,none,500,test,,,,,,,,,,,619,66,poldrack-categorize,494,650717,0.0-493.0,fed40ce7-fbf8-4f75-b74d-c8bb6081c49c,,1500,250,stim,,"<div class = centerbox><div class = stroop-stim style = ""color:blue"">RED</div></div>","66,71,82",1500,test,,,incongruent,TRUE,66,,,500,blue,red,-1,-1,poldrack-single-stim,495,651475,0.0-494.0,fed40ce7-fbf8-4f75-b74d-c8bb6081c49c,,500,500,fixation,,<div class = centerbox><div class = fixation>+</div></div>,none,500,test,,,,,,,,,,,525,71,poldrack-categorize,496,653985,0.0-495.0,fed40ce7-fbf8-4f75-b74d-c8bb6081c49c,,1500,250,stim,,"<div class = centerbox><div class = stroop-stim style = ""color:green"">BLUE</div></div>","66,71,82",1500,test,,,incongruent,TRUE,71,,,500,green,blue,-1,-1,poldrack-single-stim,497,654746,0.0-496.0,fed40ce7-fbf8-4f75-b74d-c8bb6081c49c,,500,500,fixation,,<div class = centerbox><div class = fixation>+</div></div>,none,500,test,,,,,,,,,,,732,66,poldrack-categorize,498,657259,0.0-497.0,fed40ce7-fbf8-4f75-b74d-c8bb6081c49c,,1500,250,stim,,"<div class = centerbox><div class = stroop-stim style = ""color:blue"">BLUE</div></div>","66,71,82",1500,test,,,congruent,TRUE,66,,,500,blue,blue,-1,-1,poldrack-single-stim,499,658019,0.0-498.0,fed40ce7-fbf8-4f75-b74d-c8bb6081c49c,,500,500,fixation,,<div class = centerbox><div class = fixation>+</div></div>,none,500,test,,,,,,,,,,,690,82,poldrack-categorize,500,660533,0.0-499.0,fed40ce7-fbf8-4f75-b74d-c8bb6081c49c,,1500,250,stim,,"<div class = centerbox><div class = stroop-stim style = ""color:red"">GREEN</div></div>","66,71,82",1500,test,,,incongruent,TRUE,82,,,500,red,green,-1,-1,poldrack-single-stim,501,661293,0.0-500.0,fed40ce7-fbf8-4f75-b74d-c8bb6081c49c,,500,500,fixation,,<div class = centerbox><div class = fixation>+</div></div>,none,500,test,,,,,,,,,,,647,71,poldrack-categorize,502,663802,0.0-501.0,fed40ce7-fbf8-4f75-b74d-c8bb6081c49c,,1500,250,stim,,"<div class = centerbox><div class = stroop-stim style = ""color:green"">GREEN</div></div>","66,71,82",1500,test,,,congruent,TRUE,71,,,500,green,green,-1,-1,poldrack-single-stim,503,664561,0.0-502.0,fed40ce7-fbf8-4f75-b74d-c8bb6081c49c,,500,500,fixation,,<div class = centerbox><div class = fixation>+</div></div>,none,500,test,,,,,,,,,,,451,82,poldrack-categorize,504,667074,0.0-503.0,fed40ce7-fbf8-4f75-b74d-c8bb6081c49c,,1500,250,stim,,"<div class = centerbox><div class = stroop-stim style = ""color:red"">RED</div></div>","66,71,82",1500,test,,,congruent,TRUE,82,,,500,red,red,-1,-1,poldrack-single-stim,505,667835,0.0-504.0,fed40ce7-fbf8-4f75-b74d-c8bb6081c49c,,500,500,fixation,,<div class = centerbox><div class = fixation>+</div></div>,none,500,test,,,,,,,,,,,803,71,poldrack-categorize,506,670348,0.0-505.0,fed40ce7-fbf8-4f75-b74d-c8bb6081c49c,,1500,250,stim,,"<div class = centerbox><div class = stroop-stim style = ""color:green"">GREEN</div></div>","66,71,82",1500,test,,,congruent,TRUE,71,,,500,green,green,-1,-1,poldrack-single-stim,507,671106,0.0-506.0,fed40ce7-fbf8-4f75-b74d-c8bb6081c49c,,500,500,fixation,,<div class = centerbox><div class = fixation>+</div></div>,none,500,test,,,,,,,,,,,622,82,poldrack-categorize,508,673616,0.0-507.0,fed40ce7-fbf8-4f75-b74d-c8bb6081c49c,,1500,250,stim,,"<div class = centerbox><div class = stroop-stim style = ""color:red"">GREEN</div></div>","66,71,82",1500,test,,,incongruent,TRUE,82,,,500,red,green,-1,-1,poldrack-single-stim,509,674376,0.0-508.0,fed40ce7-fbf8-4f75-b74d-c8bb6081c49c,,500,500,fixation,,<div class = centerbox><div class = fixation>+</div></div>,none,500,test,,,,,,,,,,,820,71,poldrack-categorize,510,676889,0.0-509.0,fed40ce7-fbf8-4f75-b74d-c8bb6081c49c,,1500,250,stim,,"<div class = centerbox><div class = stroop-stim style = ""color:green"">RED</div></div>","66,71,82",1500,test,,,incongruent,TRUE,71,,,500,green,red,-1,-1,poldrack-single-stim,511,677650,0.0-510.0,fed40ce7-fbf8-4f75-b74d-c8bb6081c49c,,500,500,fixation,,<div class = centerbox><div class = fixation>+</div></div>,none,500,test,,,,,,,,,,,657,71,poldrack-categorize,512,680163,0.0-511.0,fed40ce7-fbf8-4f75-b74d-c8bb6081c49c,,1500,250,stim,,"<div class = centerbox><div class = stroop-stim style = ""color:green"">BLUE</div></div>","66,71,82",1500,test,,,incongruent,TRUE,71,,,500,green,blue,-1,-1,poldrack-single-stim,513,680920,0.0-512.0,fed40ce7-fbf8-4f75-b74d-c8bb6081c49c,,500,500,fixation,,<div class = centerbox><div class = fixation>+</div></div>,none,500,test,,,,,,,,,,,477,82,poldrack-categorize,514,683431,0.0-513.0,fed40ce7-fbf8-4f75-b74d-c8bb6081c49c,,1500,250,stim,,"<div class = centerbox><div class = stroop-stim style = ""color:red"">RED</div></div>","66,71,82",1500,test,,,congruent,TRUE,82,,,500,red,red,-1,-1,poldrack-single-stim,515,684191,0.0-514.0,fed40ce7-fbf8-4f75-b74d-c8bb6081c49c,,500,500,fixation,,<div class = centerbox><div class = fixation>+</div></div>,none,500,test,,,,,,,,,,,584,82,poldrack-categorize,516,686699,0.0-515.0,fed40ce7-fbf8-4f75-b74d-c8bb6081c49c,,1500,250,stim,,"<div class = centerbox><div class = stroop-stim style = ""color:red"">BLUE</div></div>","66,71,82",1500,test,,,incongruent,TRUE,82,,,500,red,blue,-1,-1,poldrack-single-stim,517,687459,0.0-516.0,fed40ce7-fbf8-4f75-b74d-c8bb6081c49c,,500,500,fixation,,<div class = centerbox><div class = fixation>+</div></div>,none,500,test,,,,,,,,,,,782,82,poldrack-categorize,518,689973,0.0-517.0,fed40ce7-fbf8-4f75-b74d-c8bb6081c49c,,1500,250,stim,,"<div class = centerbox><div class = stroop-stim style = ""color:red"">GREEN</div></div>","66,71,82",1500,test,,,incongruent,TRUE,82,,,500,red,green,-1,-1,poldrack-single-stim,519,690733,0.0-518.0,fed40ce7-fbf8-4f75-b74d-c8bb6081c49c,,500,500,fixation,,<div class = centerbox><div class = fixation>+</div></div>,none,500,test,,,,,,,,,,,556,71,poldrack-categorize,520,693246,0.0-519.0,fed40ce7-fbf8-4f75-b74d-c8bb6081c49c,,1500,250,stim,,"<div class = centerbox><div class = stroop-stim style = ""color:green"">GREEN</div></div>","66,71,82",1500,test,,,congruent,TRUE,71,,,500,green,green,-1,-1,poldrack-single-stim,521,694003,0.0-520.0,fed40ce7-fbf8-4f75-b74d-c8bb6081c49c,,500,500,fixation,,<div class = centerbox><div class = fixation>+</div></div>,none,500,test,,,,,,,,,,,1042,71,poldrack-categorize,522,696508,0.0-521.0,fed40ce7-fbf8-4f75-b74d-c8bb6081c49c,,1500,250,stim,,"<div class = centerbox><div class = stroop-stim style = ""color:green"">RED</div></div>","66,71,82",1500,test,,,incongruent,TRUE,71,,,500,green,red,-1,-1,poldrack-single-stim,523,697269,0.0-522.0,fed40ce7-fbf8-4f75-b74d-c8bb6081c49c,,500,500,fixation,,<div class = centerbox><div class = fixation>+</div></div>,none,500,test,,,,,,,,,,,390,66,poldrack-categorize,524,699782,0.0-523.0,fed40ce7-fbf8-4f75-b74d-c8bb6081c49c,,1500,250,stim,,"<div class = centerbox><div class = stroop-stim style = ""color:blue"">RED</div></div>","66,71,82",1500,test,,,incongruent,TRUE,66,,,500,blue,red,-1,-1,poldrack-single-stim,525,700542,0.0-524.0,fed40ce7-fbf8-4f75-b74d-c8bb6081c49c,,500,500,fixation,,<div class = centerbox><div class = fixation>+</div></div>,none,500,test,,,,,,,,,,,531,66,poldrack-categorize,526,703055,0.0-525.0,fed40ce7-fbf8-4f75-b74d-c8bb6081c49c,,1500,250,stim,,"<div class = centerbox><div class = stroop-stim style = ""color:blue"">BLUE</div></div>","66,71,82",1500,test,,,congruent,TRUE,66,,,500,blue,blue,-1,-1,poldrack-single-stim,527,703814,0.0-526.0,fed40ce7-fbf8-4f75-b74d-c8bb6081c49c,,500,500,fixation,,<div class = centerbox><div class = fixation>+</div></div>,none,500,test,,,,,,,,,,,509,66,poldrack-categorize,528,706323,0.0-527.0,fed40ce7-fbf8-4f75-b74d-c8bb6081c49c,,1500,250,stim,,"<div class = centerbox><div class = stroop-stim style = ""color:blue"">GREEN</div></div>","66,71,82",1500,test,,,incongruent,TRUE,66,,,500,blue,green,-1,-1,poldrack-single-stim,529,707084,0.0-528.0,fed40ce7-fbf8-4f75-b74d-c8bb6081c49c,,500,500,fixation,,<div class = centerbox><div class = fixation>+</div></div>,none,500,test,,,,,,,,,,,437,66,poldrack-categorize,530,709597,0.0-529.0,fed40ce7-fbf8-4f75-b74d-c8bb6081c49c,,1500,250,stim,,"<div class = centerbox><div class = stroop-stim style = ""color:blue"">BLUE</div></div>","66,71,82",1500,test,,,congruent,TRUE,66,,,500,blue,blue,-1,-1,poldrack-single-stim,531,710357,0.0-530.0,fed40ce7-fbf8-4f75-b74d-c8bb6081c49c,,500,500,fixation,,<div class = centerbox><div class = fixation>+</div></div>,none,500,test,,,,,,,,,,,402,71,poldrack-categorize,532,712870,0.0-531.0,fed40ce7-fbf8-4f75-b74d-c8bb6081c49c,,1500,250,stim,,"<div class = centerbox><div class = stroop-stim style = ""color:green"">GREEN</div></div>","66,71,82",1500,test,,,congruent,TRUE,71,,,500,green,green,-1,-1,poldrack-single-stim,533,713631,0.0-532.0,fed40ce7-fbf8-4f75-b74d-c8bb6081c49c,,500,500,fixation,,<div class = centerbox><div class = fixation>+</div></div>,none,500,test,,,,,,,,,,,825,71,poldrack-categorize,534,716144,0.0-533.0,fed40ce7-fbf8-4f75-b74d-c8bb6081c49c,,1500,250,stim,,"<div class = centerbox><div class = stroop-stim style = ""color:green"">BLUE</div></div>","66,71,82",1500,test,,,incongruent,TRUE,71,,,500,green,blue,-1,-1,poldrack-single-stim,535,716904,0.0-534.0,fed40ce7-fbf8-4f75-b74d-c8bb6081c49c,,500,500,fixation,,<div class = centerbox><div class = fixation>+</div></div>,none,500,test,,,,,,,,,,,535,71,poldrack-categorize,536,719418,0.0-535.0,fed40ce7-fbf8-4f75-b74d-c8bb6081c49c,,1500,250,stim,,"<div class = centerbox><div class = stroop-stim style = ""color:green"">BLUE</div></div>","66,71,82",1500,test,,,incongruent,TRUE,71,,,500,green,blue,-1,-1,poldrack-single-stim,537,720178,0.0-536.0,fed40ce7-fbf8-4f75-b74d-c8bb6081c49c,,500,500,fixation,,<div class = centerbox><div class = fixation>+</div></div>,none,500,test,,,,,,,,,,,493,82,poldrack-categorize,538,722691,0.0-537.0,fed40ce7-fbf8-4f75-b74d-c8bb6081c49c,,1500,250,stim,,"<div class = centerbox><div class = stroop-stim style = ""color:red"">GREEN</div></div>","66,71,82",1500,test,,,incongruent,TRUE,82,,,500,red,green,-1,-1,poldrack-single-stim,539,723452,0.0-538.0,fed40ce7-fbf8-4f75-b74d-c8bb6081c49c,,500,500,fixation,,<div class = centerbox><div class = fixation>+</div></div>,none,500,test,,,,,,,,,,,578,66,poldrack-categorize,540,725965,0.0-539.0,fed40ce7-fbf8-4f75-b74d-c8bb6081c49c,,1500,250,stim,,"<div class = centerbox><div class = stroop-stim style = ""color:blue"">RED</div></div>","66,71,82",1500,test,,,incongruent,TRUE,66,,,500,blue,red,-1,-1,poldrack-single-stim,541,726725,0.0-540.0,fed40ce7-fbf8-4f75-b74d-c8bb6081c49c,,500,500,fixation,,<div class = centerbox><div class = fixation>+</div></div>,none,500,test,,,,,,,,,,,496,71,poldrack-categorize,542,729235,0.0-541.0,fed40ce7-fbf8-4f75-b74d-c8bb6081c49c,,1500,250,stim,,"<div class = centerbox><div class = stroop-stim style = ""color:green"">RED</div></div>","66,71,82",1500,test,,,incongruent,TRUE,71,,,500,green,red,-1,-1,poldrack-single-stim,543,729994,0.0-542.0,fed40ce7-fbf8-4f75-b74d-c8bb6081c49c,,500,500,fixation,,<div class = centerbox><div class = fixation>+</div></div>,none,500,test,,,,,,,,,,,604,66,poldrack-categorize,544,732506,0.0-543.0,fed40ce7-fbf8-4f75-b74d-c8bb6081c49c,,1500,250,stim,,"<div class = centerbox><div class = stroop-stim style = ""color:blue"">BLUE</div></div>","66,71,82",1500,test,,,congruent,TRUE,66,,,500,blue,blue,-1,-1,poldrack-single-stim,545,733267,0.0-544.0,fed40ce7-fbf8-4f75-b74d-c8bb6081c49c,,500,500,fixation,,<div class = centerbox><div class = fixation>+</div></div>,none,500,test,,,,,,,,,,,557,71,poldrack-categorize,546,735774,0.0-545.0,fed40ce7-fbf8-4f75-b74d-c8bb6081c49c,,1500,250,stim,,"<div class = centerbox><div class = stroop-stim style = ""color:green"">BLUE</div></div>","66,71,82",1500,test,,,incongruent,TRUE,71,,,500,green,blue,-1,-1,poldrack-single-stim,547,736535,0.0-546.0,fed40ce7-fbf8-4f75-b74d-c8bb6081c49c,,500,500,fixation,,<div class = centerbox><div class = fixation>+</div></div>,none,500,test,,,,,,,,,,,910,66,poldrack-categorize,548,739048,0.0-547.0,fed40ce7-fbf8-4f75-b74d-c8bb6081c49c,,1500,250,stim,,"<div class = centerbox><div class = stroop-stim style = ""color:blue"">RED</div></div>","66,71,82",1500,test,,,incongruent,TRUE,66,,,500,blue,red,-1,-1,poldrack-single-stim,549,739808,0.0-548.0,fed40ce7-fbf8-4f75-b74d-c8bb6081c49c,,500,500,fixation,,<div class = centerbox><div class = fixation>+</div></div>,none,500,test,,,,,,,,,,,859,71,poldrack-categorize,550,742321,0.0-549.0,fed40ce7-fbf8-4f75-b74d-c8bb6081c49c,,1500,250,stim,,"<div class = centerbox><div class = stroop-stim style = ""color:green"">RED</div></div>","66,71,82",1500,test,,,incongruent,TRUE,71,,,500,green,red,-1,-1,poldrack-single-stim,551,743082,0.0-550.0,fed40ce7-fbf8-4f75-b74d-c8bb6081c49c,,500,500,fixation,,<div class = centerbox><div class = fixation>+</div></div>,none,500,test,,,,,,,,,,,451,82,poldrack-categorize,552,745595,0.0-551.0,fed40ce7-fbf8-4f75-b74d-c8bb6081c49c,,1500,250,stim,,"<div class = centerbox><div class = stroop-stim style = ""color:red"">RED</div></div>","66,71,82",1500,test,,,congruent,TRUE,82,,,500,red,red,-1,-1,poldrack-single-stim,553,746356,0.0-552.0,fed40ce7-fbf8-4f75-b74d-c8bb6081c49c,,500,500,fixation,,<div class = centerbox><div class = fixation>+</div></div>,none,500,test,,,,,,,,,,,703,66,poldrack-categorize,554,748869,0.0-553.0,fed40ce7-fbf8-4f75-b74d-c8bb6081c49c,,1500,250,stim,,"<div class = centerbox><div class = stroop-stim style = ""color:blue"">GREEN</div></div>","66,71,82",1500,test,,,incongruent,TRUE,66,,,500,blue,green,-1,-1,poldrack-single-stim,555,749629,0.0-554.0,fed40ce7-fbf8-4f75-b74d-c8bb6081c49c,,500,500,fixation,,<div class = centerbox><div class = fixation>+</div></div>,none,500,test,,,,,,,,,,,414,71,poldrack-categorize,556,752136,0.0-555.0,fed40ce7-fbf8-4f75-b74d-c8bb6081c49c,,1500,250,stim,,"<div class = centerbox><div class = stroop-stim style = ""color:green"">GREEN</div></div>","66,71,82",1500,test,,,congruent,TRUE,71,,,500,green,green,-1,-1,poldrack-single-stim,557,752897,0.0-556.0,fed40ce7-fbf8-4f75-b74d-c8bb6081c49c,,500,500,fixation,,<div class = centerbox><div class = fixation>+</div></div>,none,500,test,,,,,,,,,,,465,71,poldrack-categorize,558,755410,0.0-557.0,fed40ce7-fbf8-4f75-b74d-c8bb6081c49c,,1500,250,stim,,"<div class = centerbox><div class = stroop-stim style = ""color:green"">GREEN</div></div>","66,71,82",1500,test,,,congruent,TRUE,71,,,500,green,green,-1,-1,poldrack-single-stim,559,756171,0.0-558.0,fed40ce7-fbf8-4f75-b74d-c8bb6081c49c,,500,500,fixation,,<div class = centerbox><div class = fixation>+</div></div>,none,500,test,,,,,,,,,,,513,82,poldrack-categorize,560,758684,0.0-559.0,fed40ce7-fbf8-4f75-b74d-c8bb6081c49c,,1500,250,stim,,"<div class = centerbox><div class = stroop-stim style = ""color:red"">BLUE</div></div>","66,71,82",1500,test,,,incongruent,TRUE,82,,,500,red,blue,-1,-1,poldrack-single-stim,561,759444,0.0-560.0,fed40ce7-fbf8-4f75-b74d-c8bb6081c49c,,500,500,fixation,,<div class = centerbox><div class = fixation>+</div></div>,none,500,test,,,,,,,,,,,581,82,poldrack-categorize,562,761957,0.0-561.0,fed40ce7-fbf8-4f75-b74d-c8bb6081c49c,,1500,250,stim,,"<div class = centerbox><div class = stroop-stim style = ""color:red"">RED</div></div>","66,71,82",1500,test,,,congruent,TRUE,82,,,500,red,red,-1,-1,poldrack-single-stim,563,762718,0.0-562.0,fed40ce7-fbf8-4f75-b74d-c8bb6081c49c,,500,500,fixation,,<div class = centerbox><div class = fixation>+</div></div>,none,500,test,,,,,,,,,,,515,71,poldrack-categorize,564,765231,0.0-563.0,fed40ce7-fbf8-4f75-b74d-c8bb6081c49c,,1500,250,stim,,"<div class = centerbox><div class = stroop-stim style = ""color:green"">GREEN</div></div>","66,71,82",1500,test,,,congruent,TRUE,71,,,500,green,green,-1,-1,poldrack-single-stim,565,765991,0.0-564.0,fed40ce7-fbf8-4f75-b74d-c8bb6081c49c,,500,500,fixation,,<div class = centerbox><div class = fixation>+</div></div>,none,500,test,,,,,,,,,,,393,66,poldrack-categorize,566,768504,0.0-565.0,fed40ce7-fbf8-4f75-b74d-c8bb6081c49c,,1500,250,stim,,"<div class = centerbox><div class = stroop-stim style = ""color:blue"">BLUE</div></div>","66,71,82",1500,test,,,congruent,TRUE,66,,,500,blue,blue,-1,-1,poldrack-single-stim,567,769259,0.0-566.0,fed40ce7-fbf8-4f75-b74d-c8bb6081c49c,,500,500,fixation,,<div class = centerbox><div class = fixation>+</div></div>,none,500,test,,,,,,,,,,,460,82,poldrack-categorize,568,771772,0.0-567.0,fed40ce7-fbf8-4f75-b74d-c8bb6081c49c,,1500,250,stim,,"<div class = centerbox><div class = stroop-stim style = ""color:red"">RED</div></div>","66,71,82",1500,test,,,congruent,TRUE,82,,,500,red,red,-1,-1,poldrack-single-stim,569,772533,0.0-568.0,fed40ce7-fbf8-4f75-b74d-c8bb6081c49c,,500,500,fixation,,<div class = centerbox><div class = fixation>+</div></div>,none,500,test,,,,,,,,,,,917,66,poldrack-categorize,570,775046,0.0-569.0,fed40ce7-fbf8-4f75-b74d-c8bb6081c49c,,1500,250,stim,,"<div class = centerbox><div class = stroop-stim style = ""color:blue"">BLUE</div></div>","66,71,82",1500,test,,,congruent,TRUE,66,,,500,blue,blue,-1,-1,poldrack-single-stim,571,775806,0.0-570.0,fed40ce7-fbf8-4f75-b74d-c8bb6081c49c,,500,500,fixation,,<div class = centerbox><div class = fixation>+</div></div>,none,500,test,,,,,,,,,,,729,66,poldrack-categorize,572,778319,0.0-571.0,fed40ce7-fbf8-4f75-b74d-c8bb6081c49c,,1500,250,stim,,"<div class = centerbox><div class = stroop-stim style = ""color:blue"">GREEN</div></div>","66,71,82",1500,test,,,incongruent,TRUE,66,,,500,blue,green,-1,-1,poldrack-single-stim,573,779080,0.0-572.0,fed40ce7-fbf8-4f75-b74d-c8bb6081c49c,,500,500,fixation,,<div class = centerbox><div class = fixation>+</div></div>,none,500,test,,,,,,,,,,,527,66,poldrack-categorize,574,781593,0.0-573.0,fed40ce7-fbf8-4f75-b74d-c8bb6081c49c,,1500,250,stim,,"<div class = centerbox><div class = stroop-stim style = ""color:blue"">BLUE</div></div>","66,71,82",1500,test,,,congruent,TRUE,66,,,500,blue,blue,-1,-1,poldrack-single-stim,575,782354,0.0-574.0,fed40ce7-fbf8-4f75-b74d-c8bb6081c49c,,500,500,fixation,,<div class = centerbox><div class = fixation>+</div></div>,none,500,test,,,,,,,,,,,893,71,poldrack-categorize,576,784867,0.0-575.0,fed40ce7-fbf8-4f75-b74d-c8bb6081c49c,,1500,250,stim,,"<div class = centerbox><div class = stroop-stim style = ""color:green"">GREEN</div></div>","66,71,82",1500,test,,,congruent,TRUE,71,,,500,green,green,-1,-1,poldrack-single-stim,577,785627,0.0-576.0,fed40ce7-fbf8-4f75-b74d-c8bb6081c49c,,500,500,fixation,,<div class = centerbox><div class = fixation>+</div></div>,none,500,test,,,,,,,,,,,507,82,poldrack-categorize,578,788135,0.0-577.0,fed40ce7-fbf8-4f75-b74d-c8bb6081c49c,,1500,250,stim,,"<div class = centerbox><div class = stroop-stim style = ""color:red"">BLUE</div></div>","66,71,82",1500,test,,,incongruent,TRUE,82,,,500,red,blue,-1,-1,poldrack-single-stim,579,788895,0.0-578.0,fed40ce7-fbf8-4f75-b74d-c8bb6081c49c,,500,500,fixation,,<div class = centerbox><div class = fixation>+</div></div>,none,500,test,,,,,,,,,,,486,82,poldrack-categorize,580,791408,0.0-579.0,fed40ce7-fbf8-4f75-b74d-c8bb6081c49c,,1500,250,stim,,"<div class = centerbox><div class = stroop-stim style = ""color:red"">RED</div></div>","66,71,82",1500,test,,,congruent,TRUE,82,,,500,red,red,-1,-1,poldrack-single-stim,581,792167,0.0-580.0,fed40ce7-fbf8-4f75-b74d-c8bb6081c49c,,500,500,fixation,,<div class = centerbox><div class = fixation>+</div></div>,none,500,test,,,,,,,,,,,410,82,poldrack-categorize,582,794676,0.0-581.0,fed40ce7-fbf8-4f75-b74d-c8bb6081c49c,,1500,250,stim,,"<div class = centerbox><div class = stroop-stim style = ""color:red"">RED</div></div>","66,71,82",1500,test,,,congruent,TRUE,82,,,500,red,red,-1,-1,poldrack-single-stim,583,795431,0.0-582.0,fed40ce7-fbf8-4f75-b74d-c8bb6081c49c,,500,500,fixation,,<div class = centerbox><div class = fixation>+</div></div>,none,500,test,,,,,,,,,,,807,66,poldrack-categorize,584,797944,0.0-583.0,fed40ce7-fbf8-4f75-b74d-c8bb6081c49c,,1500,250,stim,,"<div class = centerbox><div class = stroop-stim style = ""color:blue"">GREEN</div></div>","66,71,82",1500,test,,,incongruent,TRUE,66,,,500,blue,green,-1,-1,poldrack-single-stim,585,798704,0.0-584.0,fed40ce7-fbf8-4f75-b74d-c8bb6081c49c,,500,500,fixation,,<div class = centerbox><div class = fixation>+</div></div>,none,500,test,,,,,,,,,,,788,71,poldrack-categorize,586,801217,0.0-585.0,fed40ce7-fbf8-4f75-b74d-c8bb6081c49c,,1500,250,stim,,"<div class = centerbox><div class = stroop-stim style = ""color:green"">RED</div></div>","66,71,82",1500,test,,,incongruent,TRUE,71,,,500,green,red,-1,-1,poldrack-single-stim,587,801978,0.0-586.0,fed40ce7-fbf8-4f75-b74d-c8bb6081c49c,,500,500,fixation,,<div class = centerbox><div class = fixation>+</div></div>,none,500,test,,,,,,,,,,,441,71,poldrack-categorize,588,804491,0.0-587.0,fed40ce7-fbf8-4f75-b74d-c8bb6081c49c,,1500,250,stim,,"<div class = centerbox><div class = stroop-stim style = ""color:green"">GREEN</div></div>","66,71,82",1500,test,,,congruent,TRUE,71,,,500,green,green,-1,-1,poldrack-single-stim,589,805247,0.0-588.0,fed40ce7-fbf8-4f75-b74d-c8bb6081c49c,,500,500,fixation,,<div class = centerbox><div class = fixation>+</div></div>,none,500,test,,,,,,,,,,,661,66,poldrack-categorize,590,807759,0.0-589.0,fed40ce7-fbf8-4f75-b74d-c8bb6081c49c,,1500,250,stim,,"<div class = centerbox><div class = stroop-stim style = ""color:blue"">RED</div></div>","66,71,82",1500,test,,,incongruent,TRUE,66,,,500,blue,red,-1,-1,poldrack-single-stim,591,808519,0.0-590.0,fed40ce7-fbf8-4f75-b74d-c8bb6081c49c,,500,500,fixation,,<div class = centerbox><div class = fixation>+</div></div>,none,500,test,,,,,,,,,,,532,71,poldrack-categorize,592,811033,0.0-591.0,fed40ce7-fbf8-4f75-b74d-c8bb6081c49c,,1500,250,stim,,"<div class = centerbox><div class = stroop-stim style = ""color:green"">GREEN</div></div>","66,71,82",1500,test,,,congruent,TRUE,71,,,500,green,green,-1,-1,poldrack-single-stim,593,811791,0.0-592.0,fed40ce7-fbf8-4f75-b74d-c8bb6081c49c,,500,500,fixation,,<div class = centerbox><div class = fixation>+</div></div>,none,500,test,,,,,,,,,,,514,71,poldrack-categorize,594,814306,0.0-593.0,fed40ce7-fbf8-4f75-b74d-c8bb6081c49c,,1500,250,stim,,"<div class = centerbox><div class = stroop-stim style = ""color:green"">GREEN</div></div>","66,71,82",1500,test,,,congruent,TRUE,71,,,500,green,green,-1,-1,poldrack-single-stim,595,815067,0.0-594.0,fed40ce7-fbf8-4f75-b74d-c8bb6081c49c,,500,500,fixation,,<div class = centerbox><div class = fixation>+</div></div>,none,500,test,,,,,,,,,,,600,82,poldrack-categorize,596,817574,0.0-595.0,fed40ce7-fbf8-4f75-b74d-c8bb6081c49c,,1500,250,stim,,"<div class = centerbox><div class = stroop-stim style = ""color:red"">RED</div></div>","66,71,82",1500,test,,,congruent,TRUE,82,,,500,red,red,-1,-1,poldrack-single-stim,597,818334,0.0-596.0,fed40ce7-fbf8-4f75-b74d-c8bb6081c49c,,500,500,fixation,,<div class = centerbox><div class = fixation>+</div></div>,none,500,test,,,,,,,,,,,476,66,poldrack-categorize,598,820847,0.0-597.0,fed40ce7-fbf8-4f75-b74d-c8bb6081c49c,,1500,250,stim,,"<div class = centerbox><div class = stroop-stim style = ""color:blue"">BLUE</div></div>","66,71,82",1500,test,,,congruent,TRUE,66,,,500,blue,blue,-1,-1,poldrack-single-stim,599,821605,0.0-598.0,fed40ce7-fbf8-4f75-b74d-c8bb6081c49c,,500,500,fixation,,<div class = centerbox><div class = fixation>+</div></div>,none,500,test,,,,,,,,,,,673,82,poldrack-categorize,600,824115,0.0-599.0,fed40ce7-fbf8-4f75-b74d-c8bb6081c49c,,1500,250,stim,,"<div class = centerbox><div class = stroop-stim style = ""color:red"">GREEN</div></div>","66,71,82",1500,test,,,incongruent,TRUE,82,,,500,red,green,-1,-1,poldrack-single-stim,601,824876,0.0-600.0,fed40ce7-fbf8-4f75-b74d-c8bb6081c49c,,500,500,fixation,,<div class = centerbox><div class = fixation>+</div></div>,none,500,test,,,,,,,,,,,469,66,poldrack-categorize,602,827383,0.0-601.0,fed40ce7-fbf8-4f75-b74d-c8bb6081c49c,,1500,250,stim,,"<div class = centerbox><div class = stroop-stim style = ""color:blue"">RED</div></div>","66,71,82",1500,test,,,incongruent,TRUE,66,,,500,blue,red,-1,-1,poldrack-single-stim,603,828144,0.0-602.0,fed40ce7-fbf8-4f75-b74d-c8bb6081c49c,,500,500,fixation,,<div class = centerbox><div class = fixation>+</div></div>,none,500,test,,,,,,,,,,,729,82,poldrack-categorize,604,830657,0.0-603.0,fed40ce7-fbf8-4f75-b74d-c8bb6081c49c,,1500,250,stim,,"<div class = centerbox><div class = stroop-stim style = ""color:red"">GREEN</div></div>","66,71,82",1500,test,,,incongruent,TRUE,82,,,500,red,green,-1,-1,poldrack-single-stim,605,831418,0.0-604.0,fed40ce7-fbf8-4f75-b74d-c8bb6081c49c,,500,500,fixation,,<div class = centerbox><div class = fixation>+</div></div>,none,500,test,,,,,,,,,,,479,82,poldrack-categorize,606,833930,0.0-605.0,fed40ce7-fbf8-4f75-b74d-c8bb6081c49c,,1500,250,stim,,"<div class = centerbox><div class = stroop-stim style = ""color:red"">RED</div></div>","66,71,82",1500,test,,,congruent,TRUE,82,,,500,red,red,-1,-1,poldrack-single-stim,607,834691,0.0-606.0,fed40ce7-fbf8-4f75-b74d-c8bb6081c49c,,500,500,fixation,,<div class = centerbox><div class = fixation>+</div></div>,none,500,test,,,,,,,,,,,381,66,poldrack-categorize,608,837204,0.0-607.0,fed40ce7-fbf8-4f75-b74d-c8bb6081c49c,,1500,250,stim,,"<div class = centerbox><div class = stroop-stim style = ""color:blue"">BLUE</div></div>","66,71,82",1500,test,,,congruent,TRUE,66,,,500,blue,blue,-1,-1,poldrack-single-stim,609,837965,0.0-608.0,fed40ce7-fbf8-4f75-b74d-c8bb6081c49c,,500,500,fixation,,<div class = centerbox><div class = fixation>+</div></div>,none,500,test,,,,,,,,,,,372,71,poldrack-categorize,610,840478,0.0-609.0,fed40ce7-fbf8-4f75-b74d-c8bb6081c49c,,1500,250,stim,,"<div class = centerbox><div class = stroop-stim style = ""color:green"">GREEN</div></div>","66,71,82",1500,test,,,congruent,TRUE,71,,,500,green,green,-1,-1,poldrack-single-stim,611,841238,0.0-610.0,fed40ce7-fbf8-4f75-b74d-c8bb6081c49c,,500,500,fixation,,<div class = centerbox><div class = fixation>+</div></div>,none,500,test,,,,,,,,,,,833,66,poldrack-categorize,612,843752,0.0-611.0,fed40ce7-fbf8-4f75-b74d-c8bb6081c49c,,1500,250,stim,,"<div class = centerbox><div class = stroop-stim style = ""color:blue"">GREEN</div></div>","66,71,82",1500,test,,,incongruent,TRUE,66,,,500,blue,green,-1,-1,poldrack-single-stim,613,844512,0.0-612.0,fed40ce7-fbf8-4f75-b74d-c8bb6081c49c,,500,500,fixation,,<div class = centerbox><div class = fixation>+</div></div>,none,500,test,,,,,,,,,,,671,71,poldrack-categorize,614,847025,0.0-613.0,fed40ce7-fbf8-4f75-b74d-c8bb6081c49c,,1500,250,stim,,"<div class = centerbox><div class = stroop-stim style = ""color:green"">RED</div></div>","66,71,82",1500,test,,,incongruent,TRUE,71,,,500,green,red,-1,-1,poldrack-single-stim,615,847786,0.0-614.0,fed40ce7-fbf8-4f75-b74d-c8bb6081c49c,,500,500,fixation,,<div class = centerbox><div class = fixation>+</div></div>,none,500,test,,,,,,,,,,,749,66,poldrack-categorize,616,850299,0.0-615.0,fed40ce7-fbf8-4f75-b74d-c8bb6081c49c,,1500,250,stim,,"<div class = centerbox><div class = stroop-stim style = ""color:blue"">GREEN</div></div>","66,71,82",1500,test,,,incongruent,TRUE,66,,,500,blue,green,-1,-1,poldrack-single-stim,617,851059,0.0-616.0,fed40ce7-fbf8-4f75-b74d-c8bb6081c49c,,500,500,fixation,,<div class = centerbox><div class = fixation>+</div></div>,none,500,test,,,,,,,,,,,651,71,poldrack-categorize,618,853573,0.0-617.0,fed40ce7-fbf8-4f75-b74d-c8bb6081c49c,,1500,250,stim,,"<div class = centerbox><div class = stroop-stim style = ""color:green"">BLUE</div></div>","66,71,82",1500,test,,,incongruent,TRUE,71,,,500,green,blue,-1,-1,poldrack-single-stim,619,854334,0.0-618.0,fed40ce7-fbf8-4f75-b74d-c8bb6081c49c,,500,500,fixation,,<div class = centerbox><div class = fixation>+</div></div>,none,500,test,,,,,,,,,,,585,71,poldrack-categorize,620,856846,0.0-619.0,fed40ce7-fbf8-4f75-b74d-c8bb6081c49c,,1500,250,stim,,"<div class = centerbox><div class = stroop-stim style = ""color:green"">GREEN</div></div>","66,71,82",1500,test,,,congruent,TRUE,71,,,500,green,green,-1,-1,poldrack-single-stim,621,857607,0.0-620.0,fed40ce7-fbf8-4f75-b74d-c8bb6081c49c,,500,500,fixation,,<div class = centerbox><div class = fixation>+</div></div>,none,500,test,,,,,,,,,,,407,82,poldrack-categorize,622,860114,0.0-621.0,fed40ce7-fbf8-4f75-b74d-c8bb6081c49c,,1500,250,stim,,"<div class = centerbox><div class = stroop-stim style = ""color:red"">RED</div></div>","66,71,82",1500,test,,,congruent,TRUE,82,,,500,red,red,-1,-1,poldrack-single-stim,623,860875,0.0-622.0,fed40ce7-fbf8-4f75-b74d-c8bb6081c49c,,500,500,fixation,,<div class = centerbox><div class = fixation>+</div></div>,none,500,test,,,,,,,,,,,595,66,poldrack-categorize,624,863388,0.0-623.0,fed40ce7-fbf8-4f75-b74d-c8bb6081c49c,,1500,250,stim,,"<div class = centerbox><div class = stroop-stim style = ""color:blue"">BLUE</div></div>","66,71,82",1500,test,,,congruent,TRUE,66,,,500,blue,blue,-1,-1,poldrack-single-stim,625,864145,0.0-624.0,fed40ce7-fbf8-4f75-b74d-c8bb6081c49c,,500,500,fixation,,<div class = centerbox><div class = fixation>+</div></div>,none,500,test,,,,,,,,,,,927,71,poldrack-categorize,626,866656,0.0-625.0,fed40ce7-fbf8-4f75-b74d-c8bb6081c49c,,1500,250,stim,,"<div class = centerbox><div class = stroop-stim style = ""color:green"">BLUE</div></div>","66,71,82",1500,test,,,incongruent,TRUE,71,,,500,green,blue,-1,-1,poldrack-single-stim,627,867416,0.0-626.0,fed40ce7-fbf8-4f75-b74d-c8bb6081c49c,,500,500,fixation,,<div class = centerbox><div class = fixation>+</div></div>,none,500,test,,,,,,,,,,,533,71,poldrack-categorize,628,869929,0.0-627.0,fed40ce7-fbf8-4f75-b74d-c8bb6081c49c,,1500,250,stim,,"<div class = centerbox><div class = stroop-stim style = ""color:green"">BLUE</div></div>","66,71,82",1500,test,,,incongruent,TRUE,71,,,500,green,blue,-1,-1,poldrack-single-stim,629,870687,0.0-628.0,fed40ce7-fbf8-4f75-b74d-c8bb6081c49c,,500,500,fixation,,<div class = centerbox><div class = fixation>+</div></div>,none,500,test,,,,,,,,,,,465,71,poldrack-categorize,630,873197,0.0-629.0,fed40ce7-fbf8-4f75-b74d-c8bb6081c49c,,1500,250,stim,,"<div class = centerbox><div class = stroop-stim style = ""color:green"">RED</div></div>","66,71,82",1500,test,,,incongruent,TRUE,71,,,500,green,red,-1,-1,poldrack-single-stim,631,873954,0.0-630.0,fed40ce7-fbf8-4f75-b74d-c8bb6081c49c,,500,500,fixation,,<div class = centerbox><div class = fixation>+</div></div>,none,500,test,,,,,,,,,,,692,82,poldrack-categorize,632,876465,0.0-631.0,fed40ce7-fbf8-4f75-b74d-c8bb6081c49c,,1500,250,stim,,"<div class = centerbox><div class = stroop-stim style = ""color:red"">GREEN</div></div>","66,71,82",1500,test,,,incongruent,TRUE,82,,,500,red,green,41830,,survey-text,633,918552,0.0-633.0,fed40ce7-fbf8-4f75-b74d-c8bb6081c49c,,,,post task questions,,,,,,,,,,,"{""Q0"":""Asked to identify the ink color by entering the keys \""R\"" for red, \""B\"" for blue, and \""G\"" for green."",""Q1"":""Not as challenging as the other test.""}",,,,,3407,13,poldrack-text,634,922960,0.0-634.0,fed40ce7-fbf8-4f75-b74d-c8bb6081c49c,<div class = centerbox><p class = center-block-text>Thanks for completing this task!</p><p class = center-block-text>Press <strong>enter</strong> to continue.</p></div>,3407,0,end,,,,,,,,,,,,stroop,,,,TRUE1465,13,text,635,924464,0.0-635.0,fed40ce7-fbf8-4f75-b74d-c8bb6081c49c,,,,,,,,,,,,,,,,,,,,