"rt","key_press","trial_type","trial_index","time_elapsed","internal_node_id","subject","text","block_duration","timing_post_trial","trial_id","view_history","stimulus","possible_responses","stim_duration","exp_stage","correct","correct_response","feedback_duration","condition","stim_color","stim_word","responses","exp_id","credit_var"
"3800","13","text","0","3803","0.0-0.0","57885ee9-0adb-4623-af6e-a0703af8e91b","","","","","","","","","","","","","","","","","",""
"1564","13","poldrack-text","1","6369","0.0-1.0-0.0","57885ee9-0adb-4623-af6e-a0703af8e91b","<div class = centerbox><p class = center-block-text>Welcome to the experiment. This experiment will take about 8 minutes. Press <strong>enter</strong> to begin.</p></div>","1564","0","instruction","","","","","","","","","","","","","",""
"25476","","poldrack-instructions","2","31847","0.0-1.0-1.0","57885ee9-0adb-4623-af6e-a0703af8e91b","","","","instruction","[{""page_index"":0,""viewing_time"":25476}]","","","","","","","","","","","","",""
"6584","13","poldrack-text","3","39438","0.0-2.0","57885ee9-0adb-4623-af6e-a0703af8e91b","<div class = centerbox><p class = block-text>We will start with a few practice trials. Remember, press the key corresponding to the <strong>ink</strong> color of the word: ""r"" for words colored red, ""b"" for words colored blue, and ""g"" for words colored green.</p><p class = block-text>Press <strong>enter</strong> to begin practice.</p></div>","6584","1000","practice_intro","","","","","","","","","","","","","",""
"-1","-1","poldrack-single-stim","4","40944","0.0-3.0","57885ee9-0adb-4623-af6e-a0703af8e91b","","500","500","fixation","","<div class = centerbox><div class = fixation>+</div></div>","none","500","practice","","","","","","","","",""
"949","82","poldrack-categorize","5","43457","0.0-4.0","57885ee9-0adb-4623-af6e-a0703af8e91b","","1500","250","stim","","<div class = centerbox><div class = stroop-stim style = ""color:red"">GREEN</div></div>","66,71,82","1500","practice","true","82","500","incongruent","red","green","","",""
"-1","-1","poldrack-single-stim","6","44211","0.0-5.0","57885ee9-0adb-4623-af6e-a0703af8e91b","","500","500","fixation","","<div class = centerbox><div class = fixation>+</div></div>","none","500","practice","","","","","","","","",""
"697","66","poldrack-categorize","7","46724","0.0-6.0","57885ee9-0adb-4623-af6e-a0703af8e91b","","1500","250","stim","","<div class = centerbox><div class = stroop-stim style = ""color:blue"">BLUE</div></div>","66,71,82","1500","practice","true","66","500","congruent","blue","blue","","",""
"-1","-1","poldrack-single-stim","8","47482","0.0-7.0","57885ee9-0adb-4623-af6e-a0703af8e91b","","500","500","fixation","","<div class = centerbox><div class = fixation>+</div></div>","none","500","practice","","","","","","","","",""
"661","66","poldrack-categorize","9","49992","0.0-8.0","57885ee9-0adb-4623-af6e-a0703af8e91b","","1500","250","stim","","<div class = centerbox><div class = stroop-stim style = ""color:blue"">BLUE</div></div>","66,71,82","1500","practice","true","66","500","congruent","blue","blue","","",""
"-1","-1","poldrack-single-stim","10","50753","0.0-9.0","57885ee9-0adb-4623-af6e-a0703af8e91b","","500","500","fixation","","<div class = centerbox><div class = fixation>+</div></div>","none","500","practice","","","","","","","","",""
"1042","71","poldrack-categorize","11","53263","0.0-10.0","57885ee9-0adb-4623-af6e-a0703af8e91b","","1500","250","stim","","<div class = centerbox><div class = stroop-stim style = ""color:green"">BLUE</div></div>","66,71,82","1500","practice","true","71","500","incongruent","green","blue","","",""
"-1","-1","poldrack-single-stim","12","54021","0.0-11.0","57885ee9-0adb-4623-af6e-a0703af8e91b","","500","500","fixation","","<div class = centerbox><div class = fixation>+</div></div>","none","500","practice","","","","","","","","",""
"1014","71","poldrack-categorize","13","56534","0.0-12.0","57885ee9-0adb-4623-af6e-a0703af8e91b","","1500","250","stim","","<div class = centerbox><div class = stroop-stim style = ""color:green"">GREEN</div></div>","66,71,82","1500","practice","true","71","500","congruent","green","green","","",""
"-1","-1","poldrack-single-stim","14","57292","0.0-13.0","57885ee9-0adb-4623-af6e-a0703af8e91b","","500","500","fixation","","<div class = centerbox><div class = fixation>+</div></div>","none","500","practice","","","","","","","","",""
"555","71","poldrack-categorize","15","59802","0.0-14.0","57885ee9-0adb-4623-af6e-a0703af8e91b","","1500","250","stim","","<div class = centerbox><div class = stroop-stim style = ""color:green"">GREEN</div></div>","66,71,82","1500","practice","true","71","500","congruent","green","green","","",""
"-1","-1","poldrack-single-stim","16","60562","0.0-15.0","57885ee9-0adb-4623-af6e-a0703af8e91b","","500","500","fixation","","<div class = centerbox><div class = fixation>+</div></div>","none","500","practice","","","","","","","","",""
"720","66","poldrack-categorize","17","63076","0.0-16.0","57885ee9-0adb-4623-af6e-a0703af8e91b","","1500","250","stim","","<div class = centerbox><div class = stroop-stim style = ""color:blue"">BLUE</div></div>","66,71,82","1500","practice","true","66","500","congruent","blue","blue","","",""
"-1","-1","poldrack-single-stim","18","63834","0.0-17.0","57885ee9-0adb-4623-af6e-a0703af8e91b","","500","500","fixation","","<div class = centerbox><div class = fixation>+</div></div>","none","500","practice","","","","","","","","",""
"700","66","poldrack-categorize","19","66343","0.0-18.0","57885ee9-0adb-4623-af6e-a0703af8e91b","","1500","250","stim","","<div class = centerbox><div class = stroop-stim style = ""color:blue"">GREEN</div></div>","66,71,82","1500","practice","true","66","500","incongruent","blue","green","","",""
"-1","-1","poldrack-single-stim","20","67101","0.0-19.0","57885ee9-0adb-4623-af6e-a0703af8e91b","","500","500","fixation","","<div class = centerbox><div class = fixation>+</div></div>","none","500","practice","","","","","","","","",""
"528","82","poldrack-categorize","21","69611","0.0-20.0","57885ee9-0adb-4623-af6e-a0703af8e91b","","1500","250","stim","","<div class = centerbox><div class = stroop-stim style = ""color:red"">RED</div></div>","66,71,82","1500","practice","true","82","500","congruent","red","red","","",""
"-1","-1","poldrack-single-stim","22","70369","0.0-21.0","57885ee9-0adb-4623-af6e-a0703af8e91b","","500","500","fixation","","<div class = centerbox><div class = fixation>+</div></div>","none","500","practice","","","","","","","","",""
"699","82","poldrack-categorize","23","72876","0.0-22.0","57885ee9-0adb-4623-af6e-a0703af8e91b","","1500","250","stim","","<div class = centerbox><div class = stroop-stim style = ""color:red"">BLUE</div></div>","66,71,82","1500","practice","true","82","500","incongruent","red","blue","","",""
"-1","-1","poldrack-single-stim","24","73634","0.0-23.0","57885ee9-0adb-4623-af6e-a0703af8e91b","","500","500","fixation","","<div class = centerbox><div class = fixation>+</div></div>","none","500","practice","","","","","","","","",""
"799","66","poldrack-categorize","25","76147","0.0-24.0","57885ee9-0adb-4623-af6e-a0703af8e91b","","1500","250","stim","","<div class = centerbox><div class = stroop-stim style = ""color:green"">GREEN</div></div>","66,71,82","1500","practice","false","71","500","congruent","green","green","","",""
"-1","-1","poldrack-single-stim","26","76908","0.0-25.0","57885ee9-0adb-4623-af6e-a0703af8e91b","","500","500","fixation","","<div class = centerbox><div class = fixation>+</div></div>","none","500","practice","","","","","","","","",""
"1263","66","poldrack-categorize","27","79421","0.0-26.0","57885ee9-0adb-4623-af6e-a0703af8e91b","","1500","250","stim","","<div class = centerbox><div class = stroop-stim style = ""color:blue"">BLUE</div></div>","66,71,82","1500","practice","true","66","500","congruent","blue","blue","","",""
"-1","-1","poldrack-single-stim","28","80181","0.0-27.0","57885ee9-0adb-4623-af6e-a0703af8e91b","","500","500","fixation","","<div class = centerbox><div class = fixation>+</div></div>","none","500","practice","","","","","","","","",""
"934","71","poldrack-categorize","29","82695","0.0-28.0","57885ee9-0adb-4623-af6e-a0703af8e91b","","1500","250","stim","","<div class = centerbox><div class = stroop-stim style = ""color:green"">BLUE</div></div>","66,71,82","1500","practice","true","71","500","incongruent","green","blue","","",""
"-1","-1","poldrack-single-stim","30","83453","0.0-29.0","57885ee9-0adb-4623-af6e-a0703af8e91b","","500","500","fixation","","<div class = centerbox><div class = fixation>+</div></div>","none","500","practice","","","","","","","","",""
"583","82","poldrack-categorize","31","85963","0.0-30.0","57885ee9-0adb-4623-af6e-a0703af8e91b","","1500","250","stim","","<div class = centerbox><div class = stroop-stim style = ""color:red"">RED</div></div>","66,71,82","1500","practice","true","82","500","congruent","red","red","","",""
"-1","-1","poldrack-single-stim","32","86720","0.0-31.0","57885ee9-0adb-4623-af6e-a0703af8e91b","","500","500","fixation","","<div class = centerbox><div class = fixation>+</div></div>","none","500","practice","","","","","","","","",""
"971","66","poldrack-categorize","33","89230","0.0-32.0","57885ee9-0adb-4623-af6e-a0703af8e91b","","1500","250","stim","","<div class = centerbox><div class = stroop-stim style = ""color:blue"">RED</div></div>","66,71,82","1500","practice","true","66","500","incongruent","blue","red","","",""
"-1","-1","poldrack-single-stim","34","89988","0.0-33.0","57885ee9-0adb-4623-af6e-a0703af8e91b","","500","500","fixation","","<div class = centerbox><div class = fixation>+</div></div>","none","500","practice","","","","","","","","",""
"595","71","poldrack-categorize","35","92502","0.0-34.0","57885ee9-0adb-4623-af6e-a0703af8e91b","","1500","250","stim","","<div class = centerbox><div class = stroop-stim style = ""color:green"">RED</div></div>","66,71,82","1500","practice","true","71","500","incongruent","green","red","","",""
"-1","-1","poldrack-single-stim","36","93259","0.0-35.0","57885ee9-0adb-4623-af6e-a0703af8e91b","","500","500","fixation","","<div class = centerbox><div class = fixation>+</div></div>","none","500","practice","","","","","","","","",""
"660","82","poldrack-categorize","37","95772","0.0-36.0","57885ee9-0adb-4623-af6e-a0703af8e91b","","1500","250","stim","","<div class = centerbox><div class = stroop-stim style = ""color:red"">RED</div></div>","66,71,82","1500","practice","true","82","500","congruent","red","red","","",""
"-1","-1","poldrack-single-stim","38","96527","0.0-37.0","57885ee9-0adb-4623-af6e-a0703af8e91b","","500","500","fixation","","<div class = centerbox><div class = fixation>+</div></div>","none","500","practice","","","","","","","","",""
"800","82","poldrack-categorize","39","99040","0.0-38.0","57885ee9-0adb-4623-af6e-a0703af8e91b","","1500","250","stim","","<div class = centerbox><div class = stroop-stim style = ""color:red"">BLUE</div></div>","66,71,82","1500","practice","true","82","500","incongruent","red","blue","","",""
"-1","-1","poldrack-single-stim","40","99798","0.0-39.0","57885ee9-0adb-4623-af6e-a0703af8e91b","","500","500","fixation","","<div class = centerbox><div class = fixation>+</div></div>","none","500","practice","","","","","","","","",""
"876","71","poldrack-categorize","41","102308","0.0-40.0","57885ee9-0adb-4623-af6e-a0703af8e91b","","1500","250","stim","","<div class = centerbox><div class = stroop-stim style = ""color:green"">RED</div></div>","66,71,82","1500","practice","true","71","500","incongruent","green","red","","",""
"-1","-1","poldrack-single-stim","42","103068","0.0-41.0","57885ee9-0adb-4623-af6e-a0703af8e91b","","500","500","fixation","","<div class = centerbox><div class = fixation>+</div></div>","none","500","practice","","","","","","","","",""
"604","66","poldrack-categorize","43","105582","0.0-42.0","57885ee9-0adb-4623-af6e-a0703af8e91b","","1500","250","stim","","<div class = centerbox><div class = stroop-stim style = ""color:blue"">GREEN</div></div>","66,71,82","1500","practice","true","66","500","incongruent","blue","green","","",""
"-1","-1","poldrack-single-stim","44","106336","0.0-43.0","57885ee9-0adb-4623-af6e-a0703af8e91b","","500","500","fixation","","<div class = centerbox><div class = fixation>+</div></div>","none","500","practice","","","","","","","","",""
"582","82","poldrack-categorize","45","108849","0.0-44.0","57885ee9-0adb-4623-af6e-a0703af8e91b","","1500","250","stim","","<div class = centerbox><div class = stroop-stim style = ""color:red"">RED</div></div>","66,71,82","1500","practice","true","82","500","congruent","red","red","","",""
"-1","-1","poldrack-single-stim","46","109608","0.0-45.0","57885ee9-0adb-4623-af6e-a0703af8e91b","","500","500","fixation","","<div class = centerbox><div class = fixation>+</div></div>","none","500","practice","","","","","","","","",""
"634","82","poldrack-categorize","47","112117","0.0-46.0","57885ee9-0adb-4623-af6e-a0703af8e91b","","1500","250","stim","","<div class = centerbox><div class = stroop-stim style = ""color:red"">GREEN</div></div>","66,71,82","1500","practice","true","82","500","incongruent","red","green","","",""
"-1","-1","poldrack-single-stim","48","112878","0.0-47.0","57885ee9-0adb-4623-af6e-a0703af8e91b","","500","500","fixation","","<div class = centerbox><div class = fixation>+</div></div>","none","500","practice","","","","","","","","",""
"954","66","poldrack-categorize","49","115391","0.0-48.0","57885ee9-0adb-4623-af6e-a0703af8e91b","","1500","250","stim","","<div class = centerbox><div class = stroop-stim style = ""color:blue"">RED</div></div>","66,71,82","1500","practice","true","66","500","incongruent","blue","red","","",""
"-1","-1","poldrack-single-stim","50","116152","0.0-49.0","57885ee9-0adb-4623-af6e-a0703af8e91b","","500","500","fixation","","<div class = centerbox><div class = fixation>+</div></div>","none","500","practice","","","","","","","","",""
"528","71","poldrack-categorize","51","118665","0.0-50.0","57885ee9-0adb-4623-af6e-a0703af8e91b","","1500","250","stim","","<div class = centerbox><div class = stroop-stim style = ""color:green"">GREEN</div></div>","66,71,82","1500","practice","true","71","500","congruent","green","green","","",""
"3494","13","poldrack-text","52","122414","0.0-52.0","57885ee9-0adb-4623-af6e-a0703af8e91b","<div class = centerbox><p class = center-block-text>We will now start the test. Respond exactly like you did during practice.</p><p class = center-block-text>Press <strong>enter</strong> to begin the test.</p></div>","3494","1000","test_intro","","","","","","","","","","","","","",""
"-1","-1","poldrack-single-stim","53","123924","0.0-53.0","57885ee9-0adb-4623-af6e-a0703af8e91b","","500","500","fixation","","<div class = centerbox><div class = fixation>+</div></div>","none","500","test","","","","","","","","",""
"651","66","poldrack-categorize","54","126437","0.0-54.0","57885ee9-0adb-4623-af6e-a0703af8e91b","","1500","250","stim","","<div class = centerbox><div class = stroop-stim style = ""color:blue"">BLUE</div></div>","66,71,82","1500","test","true","66","500","congruent","blue","blue","","",""
"-1","-1","poldrack-single-stim","55","127198","0.0-55.0","57885ee9-0adb-4623-af6e-a0703af8e91b","","500","500","fixation","","<div class = centerbox><div class = fixation>+</div></div>","none","500","test","","","","","","","","",""
"608","66","poldrack-categorize","56","129711","0.0-56.0","57885ee9-0adb-4623-af6e-a0703af8e91b","","1500","250","stim","","<div class = centerbox><div class = stroop-stim style = ""color:blue"">BLUE</div></div>","66,71,82","1500","test","true","66","500","congruent","blue","blue","","",""
"-1","-1","poldrack-single-stim","57","130469","0.0-57.0","57885ee9-0adb-4623-af6e-a0703af8e91b","","500","500","fixation","","<div class = centerbox><div class = fixation>+</div></div>","none","500","test","","","","","","","","",""
"723","71","poldrack-categorize","58","132977","0.0-58.0","57885ee9-0adb-4623-af6e-a0703af8e91b","","1500","250","stim","","<div class = centerbox><div class = stroop-stim style = ""color:green"">GREEN</div></div>","66,71,82","1500","test","true","71","500","congruent","green","green","","",""
"-1","-1","poldrack-single-stim","59","133733","0.0-59.0","57885ee9-0adb-4623-af6e-a0703af8e91b","","500","500","fixation","","<div class = centerbox><div class = fixation>+</div></div>","none","500","test","","","","","","","","",""
"543","82","poldrack-categorize","60","136246","0.0-60.0","57885ee9-0adb-4623-af6e-a0703af8e91b","","1500","250","stim","","<div class = centerbox><div class = stroop-stim style = ""color:red"">GREEN</div></div>","66,71,82","1500","test","true","82","500","incongruent","red","green","","",""
"-1","-1","poldrack-single-stim","61","137006","0.0-61.0","57885ee9-0adb-4623-af6e-a0703af8e91b","","500","500","fixation","","<div class = centerbox><div class = fixation>+</div></div>","none","500","test","","","","","","","","",""
"871","71","poldrack-categorize","62","139520","0.0-62.0","57885ee9-0adb-4623-af6e-a0703af8e91b","","1500","250","stim","","<div class = centerbox><div class = stroop-stim style = ""color:green"">GREEN</div></div>","66,71,82","1500","test","true","71","500","congruent","green","green","","",""
"-1","-1","poldrack-single-stim","63","140281","0.0-63.0","57885ee9-0adb-4623-af6e-a0703af8e91b","","500","500","fixation","","<div class = centerbox><div class = fixation>+</div></div>","none","500","test","","","","","","","","",""
"866","71","poldrack-categorize","64","142794","0.0-64.0","57885ee9-0adb-4623-af6e-a0703af8e91b","","1500","250","stim","","<div class = centerbox><div class = stroop-stim style = ""color:green"">GREEN</div></div>","66,71,82","1500","test","true","71","500","congruent","green","green","","",""
"-1","-1","poldrack-single-stim","65","143552","0.0-65.0","57885ee9-0adb-4623-af6e-a0703af8e91b","","500","500","fixation","","<div class = centerbox><div class = fixation>+</div></div>","none","500","test","","","","","","","","",""
"591","82","poldrack-categorize","66","146062","0.0-66.0","57885ee9-0adb-4623-af6e-a0703af8e91b","","1500","250","stim","","<div class = centerbox><div class = stroop-stim style = ""color:blue"">RED</div></div>","66,71,82","1500","test","false","66","500","incongruent","blue","red","","",""
"-1","-1","poldrack-single-stim","67","146817","0.0-67.0","57885ee9-0adb-4623-af6e-a0703af8e91b","","500","500","fixation","","<div class = centerbox><div class = fixation>+</div></div>","none","500","test","","","","","","","","",""
"674","66","poldrack-categorize","68","149330","0.0-68.0","57885ee9-0adb-4623-af6e-a0703af8e91b","","1500","250","stim","","<div class = centerbox><div class = stroop-stim style = ""color:blue"">BLUE</div></div>","66,71,82","1500","test","true","66","500","congruent","blue","blue","","",""
"-1","-1","poldrack-single-stim","69","150089","0.0-69.0","57885ee9-0adb-4623-af6e-a0703af8e91b","","500","500","fixation","","<div class = centerbox><div class = fixation>+</div></div>","none","500","test","","","","","","","","",""
"573","82","poldrack-categorize","70","152598","0.0-70.0","57885ee9-0adb-4623-af6e-a0703af8e91b","","1500","250","stim","","<div class = centerbox><div class = stroop-stim style = ""color:red"">RED</div></div>","66,71,82","1500","test","true","82","500","congruent","red","red","","",""
"-1","-1","poldrack-single-stim","71","153356","0.0-71.0","57885ee9-0adb-4623-af6e-a0703af8e91b","","500","500","fixation","","<div class = centerbox><div class = fixation>+</div></div>","none","500","test","","","","","","","","",""
"790","66","poldrack-categorize","72","155871","0.0-72.0","57885ee9-0adb-4623-af6e-a0703af8e91b","","1500","250","stim","","<div class = centerbox><div class = stroop-stim style = ""color:blue"">GREEN</div></div>","66,71,82","1500","test","true","66","500","incongruent","blue","green","","",""
"-1","-1","poldrack-single-stim","73","156630","0.0-73.0","57885ee9-0adb-4623-af6e-a0703af8e91b","","500","500","fixation","","<div class = centerbox><div class = fixation>+</div></div>","none","500","test","","","","","","","","",""
"632","82","poldrack-categorize","74","159139","0.0-74.0","57885ee9-0adb-4623-af6e-a0703af8e91b","","1500","250","stim","","<div class = centerbox><div class = stroop-stim style = ""color:red"">GREEN</div></div>","66,71,82","1500","test","true","82","500","incongruent","red","green","","",""
"-1","-1","poldrack-single-stim","75","159897","0.0-75.0","57885ee9-0adb-4623-af6e-a0703af8e91b","","500","500","fixation","","<div class = centerbox><div class = fixation>+</div></div>","none","500","test","","","","","","","","",""
"611","71","poldrack-categorize","76","162407","0.0-76.0","57885ee9-0adb-4623-af6e-a0703af8e91b","","1500","250","stim","","<div class = centerbox><div class = stroop-stim style = ""color:green"">BLUE</div></div>","66,71,82","1500","test","true","71","500","incongruent","green","blue","","",""
"-1","-1","poldrack-single-stim","77","163165","0.0-77.0","57885ee9-0adb-4623-af6e-a0703af8e91b","","500","500","fixation","","<div class = centerbox><div class = fixation>+</div></div>","none","500","test","","","","","","","","",""
"783","71","poldrack-categorize","78","165675","0.0-78.0","57885ee9-0adb-4623-af6e-a0703af8e91b","","1500","250","stim","","<div class = centerbox><div class = stroop-stim style = ""color:green"">RED</div></div>","66,71,82","1500","test","true","71","500","incongruent","green","red","","",""
"-1","-1","poldrack-single-stim","79","166430","0.0-79.0","57885ee9-0adb-4623-af6e-a0703af8e91b","","500","500","fixation","","<div class = centerbox><div class = fixation>+</div></div>","none","500","test","","","","","","","","",""
"931","71","poldrack-categorize","80","168943","0.0-80.0","57885ee9-0adb-4623-af6e-a0703af8e91b","","1500","250","stim","","<div class = centerbox><div class = stroop-stim style = ""color:green"">BLUE</div></div>","66,71,82","1500","test","true","71","500","incongruent","green","blue","","",""
"-1","-1","poldrack-single-stim","81","169703","0.0-81.0","57885ee9-0adb-4623-af6e-a0703af8e91b","","500","500","fixation","","<div class = centerbox><div class = fixation>+</div></div>","none","500","test","","","","","","","","",""
"730","66","poldrack-categorize","82","172217","0.0-82.0","57885ee9-0adb-4623-af6e-a0703af8e91b","","1500","250","stim","","<div class = centerbox><div class = stroop-stim style = ""color:blue"">BLUE</div></div>","66,71,82","1500","test","true","66","500","congruent","blue","blue","","",""
"-1","-1","poldrack-single-stim","83","172975","0.0-83.0","57885ee9-0adb-4623-af6e-a0703af8e91b","","500","500","fixation","","<div class = centerbox><div class = fixation>+</div></div>","none","500","test","","","","","","","","",""
"597","66","poldrack-categorize","84","175485","0.0-84.0","57885ee9-0adb-4623-af6e-a0703af8e91b","","1500","250","stim","","<div class = centerbox><div class = stroop-stim style = ""color:blue"">RED</div></div>","66,71,82","1500","test","true","66","500","incongruent","blue","red","","",""
"-1","-1","poldrack-single-stim","85","176242","0.0-85.0","57885ee9-0adb-4623-af6e-a0703af8e91b","","500","500","fixation","","<div class = centerbox><div class = fixation>+</div></div>","none","500","test","","","","","","","","",""
"601","66","poldrack-categorize","86","178753","0.0-86.0","57885ee9-0adb-4623-af6e-a0703af8e91b","","1500","250","stim","","<div class = centerbox><div class = stroop-stim style = ""color:blue"">BLUE</div></div>","66,71,82","1500","test","true","66","500","congruent","blue","blue","","",""
"-1","-1","poldrack-single-stim","87","179513","0.0-87.0","57885ee9-0adb-4623-af6e-a0703af8e91b","","500","500","fixation","","<div class = centerbox><div class = fixation>+</div></div>","none","500","test","","","","","","","","",""
"705","66","poldrack-categorize","88","182026","0.0-88.0","57885ee9-0adb-4623-af6e-a0703af8e91b","","1500","250","stim","","<div class = centerbox><div class = stroop-stim style = ""color:blue"">RED</div></div>","66,71,82","1500","test","true","66","500","incongruent","blue","red","","",""
"-1","-1","poldrack-single-stim","89","182784","0.0-89.0","57885ee9-0adb-4623-af6e-a0703af8e91b","","500","500","fixation","","<div class = centerbox><div class = fixation>+</div></div>","none","500","test","","","","","","","","",""
"658","71","poldrack-categorize","90","185294","0.0-90.0","57885ee9-0adb-4623-af6e-a0703af8e91b","","1500","250","stim","","<div class = centerbox><div class = stroop-stim style = ""color:green"">RED</div></div>","66,71,82","1500","test","true","71","500","incongruent","green","red","","",""
"-1","-1","poldrack-single-stim","91","186052","0.0-91.0","57885ee9-0adb-4623-af6e-a0703af8e91b","","500","500","fixation","","<div class = centerbox><div class = fixation>+</div></div>","none","500","test","","","","","","","","",""
"670","66","poldrack-categorize","92","188562","0.0-92.0","57885ee9-0adb-4623-af6e-a0703af8e91b","","1500","250","stim","","<div class = centerbox><div class = stroop-stim style = ""color:blue"">RED</div></div>","66,71,82","1500","test","true","66","500","incongruent","blue","red","","",""
"-1","-1","poldrack-single-stim","93","189323","0.0-93.0","57885ee9-0adb-4623-af6e-a0703af8e91b","","500","500","fixation","","<div class = centerbox><div class = fixation>+</div></div>","none","500","test","","","","","","","","",""
"575","66","poldrack-categorize","94","191836","0.0-94.0","57885ee9-0adb-4623-af6e-a0703af8e91b","","1500","250","stim","","<div class = centerbox><div class = stroop-stim style = ""color:blue"">BLUE</div></div>","66,71,82","1500","test","true","66","500","congruent","blue","blue","","",""
"-1","-1","poldrack-single-stim","95","192594","0.0-95.0","57885ee9-0adb-4623-af6e-a0703af8e91b","","500","500","fixation","","<div class = centerbox><div class = fixation>+</div></div>","none","500","test","","","","","","","","",""
"578","71","poldrack-categorize","96","195110","0.0-96.0","57885ee9-0adb-4623-af6e-a0703af8e91b","","1500","250","stim","","<div class = centerbox><div class = stroop-stim style = ""color:green"">GREEN</div></div>","66,71,82","1500","test","true","71","500","congruent","green","green","","",""
"-1","-1","poldrack-single-stim","97","195864","0.0-97.0","57885ee9-0adb-4623-af6e-a0703af8e91b","","500","500","fixation","","<div class = centerbox><div class = fixation>+</div></div>","none","500","test","","","","","","","","",""
"518","82","poldrack-categorize","98","198377","0.0-98.0","57885ee9-0adb-4623-af6e-a0703af8e91b","","1500","250","stim","","<div class = centerbox><div class = stroop-stim style = ""color:red"">RED</div></div>","66,71,82","1500","test","true","82","500","congruent","red","red","","",""
"-1","-1","poldrack-single-stim","99","199137","0.0-99.0","57885ee9-0adb-4623-af6e-a0703af8e91b","","500","500","fixation","","<div class = centerbox><div class = fixation>+</div></div>","none","500","test","","","","","","","","",""
"1024","71","poldrack-categorize","100","201645","0.0-100.0","57885ee9-0adb-4623-af6e-a0703af8e91b","","1500","250","stim","","<div class = centerbox><div class = stroop-stim style = ""color:green"">RED</div></div>","66,71,82","1500","test","true","71","500","incongruent","green","red","","",""
"-1","-1","poldrack-single-stim","101","202403","0.0-101.0","57885ee9-0adb-4623-af6e-a0703af8e91b","","500","500","fixation","","<div class = centerbox><div class = fixation>+</div></div>","none","500","test","","","","","","","","",""
"725","82","poldrack-categorize","102","204909","0.0-102.0","57885ee9-0adb-4623-af6e-a0703af8e91b","","1500","250","stim","","<div class = centerbox><div class = stroop-stim style = ""color:red"">RED</div></div>","66,71,82","1500","test","true","82","500","congruent","red","red","","",""
"-1","-1","poldrack-single-stim","103","205668","0.0-103.0","57885ee9-0adb-4623-af6e-a0703af8e91b","","500","500","fixation","","<div class = centerbox><div class = fixation>+</div></div>","none","500","test","","","","","","","","",""
"769","66","poldrack-categorize","104","208181","0.0-104.0","57885ee9-0adb-4623-af6e-a0703af8e91b","","1500","250","stim","","<div class = centerbox><div class = stroop-stim style = ""color:blue"">BLUE</div></div>","66,71,82","1500","test","true","66","500","congruent","blue","blue","","",""
"-1","-1","poldrack-single-stim","105","208942","0.0-105.0","57885ee9-0adb-4623-af6e-a0703af8e91b","","500","500","fixation","","<div class = centerbox><div class = fixation>+</div></div>","none","500","test","","","","","","","","",""
"888","66","poldrack-categorize","106","211455","0.0-106.0","57885ee9-0adb-4623-af6e-a0703af8e91b","","1500","250","stim","","<div class = centerbox><div class = stroop-stim style = ""color:blue"">BLUE</div></div>","66,71,82","1500","test","true","66","500","congruent","blue","blue","","",""
"-1","-1","poldrack-single-stim","107","212215","0.0-107.0","57885ee9-0adb-4623-af6e-a0703af8e91b","","500","500","fixation","","<div class = centerbox><div class = fixation>+</div></div>","none","500","test","","","","","","","","",""
"542","71","poldrack-categorize","108","214729","0.0-108.0","57885ee9-0adb-4623-af6e-a0703af8e91b","","1500","250","stim","","<div class = centerbox><div class = stroop-stim style = ""color:green"">GREEN</div></div>","66,71,82","1500","test","true","71","500","congruent","green","green","","",""
"-1","-1","poldrack-single-stim","109","215487","0.0-109.0","57885ee9-0adb-4623-af6e-a0703af8e91b","","500","500","fixation","","<div class = centerbox><div class = fixation>+</div></div>","none","500","test","","","","","","","","",""
"481","71","poldrack-categorize","110","217997","0.0-110.0","57885ee9-0adb-4623-af6e-a0703af8e91b","","1500","250","stim","","<div class = centerbox><div class = stroop-stim style = ""color:green"">GREEN</div></div>","66,71,82","1500","test","true","71","500","congruent","green","green","","",""
"-1","-1","poldrack-single-stim","111","218756","0.0-111.0","57885ee9-0adb-4623-af6e-a0703af8e91b","","500","500","fixation","","<div class = centerbox><div class = fixation>+</div></div>","none","500","test","","","","","","","","",""
"488","71","poldrack-categorize","112","221270","0.0-112.0","57885ee9-0adb-4623-af6e-a0703af8e91b","","1500","250","stim","","<div class = centerbox><div class = stroop-stim style = ""color:green"">GREEN</div></div>","66,71,82","1500","test","true","71","500","congruent","green","green","","",""
"-1","-1","poldrack-single-stim","113","222030","0.0-113.0","57885ee9-0adb-4623-af6e-a0703af8e91b","","500","500","fixation","","<div class = centerbox><div class = fixation>+</div></div>","none","500","test","","","","","","","","",""
"513","82","poldrack-categorize","114","224538","0.0-114.0","57885ee9-0adb-4623-af6e-a0703af8e91b","","1500","250","stim","","<div class = centerbox><div class = stroop-stim style = ""color:red"">RED</div></div>","66,71,82","1500","test","true","82","500","congruent","red","red","","",""
"-1","-1","poldrack-single-stim","115","225297","0.0-115.0","57885ee9-0adb-4623-af6e-a0703af8e91b","","500","500","fixation","","<div class = centerbox><div class = fixation>+</div></div>","none","500","test","","","","","","","","",""
"823","66","poldrack-categorize","116","227806","0.0-116.0","57885ee9-0adb-4623-af6e-a0703af8e91b","","1500","250","stim","","<div class = centerbox><div class = stroop-stim style = ""color:blue"">BLUE</div></div>","66,71,82","1500","test","true","66","500","congruent","blue","blue","","",""
"-1","-1","poldrack-single-stim","117","228564","0.0-117.0","57885ee9-0adb-4623-af6e-a0703af8e91b","","500","500","fixation","","<div class = centerbox><div class = fixation>+</div></div>","none","500","test","","","","","","","","",""
"498","66","poldrack-categorize","118","231074","0.0-118.0","57885ee9-0adb-4623-af6e-a0703af8e91b","","1500","250","stim","","<div class = centerbox><div class = stroop-stim style = ""color:blue"">BLUE</div></div>","66,71,82","1500","test","true","66","500","congruent","blue","blue","","",""
"-1","-1","poldrack-single-stim","119","231832","0.0-119.0","57885ee9-0adb-4623-af6e-a0703af8e91b","","500","500","fixation","","<div class = centerbox><div class = fixation>+</div></div>","none","500","test","","","","","","","","",""
"678","82","poldrack-categorize","120","234342","0.0-120.0","57885ee9-0adb-4623-af6e-a0703af8e91b","","1500","250","stim","","<div class = centerbox><div class = stroop-stim style = ""color:red"">GREEN</div></div>","66,71,82","1500","test","true","82","500","incongruent","red","green","","",""
"-1","-1","poldrack-single-stim","121","235103","0.0-121.0","57885ee9-0adb-4623-af6e-a0703af8e91b","","500","500","fixation","","<div class = centerbox><div class = fixation>+</div></div>","none","500","test","","","","","","","","",""
"831","71","poldrack-categorize","122","237610","0.0-122.0","57885ee9-0adb-4623-af6e-a0703af8e91b","","1500","250","stim","","<div class = centerbox><div class = stroop-stim style = ""color:green"">RED</div></div>","66,71,82","1500","test","true","71","500","incongruent","green","red","","",""
"-1","-1","poldrack-single-stim","123","238371","0.0-123.0","57885ee9-0adb-4623-af6e-a0703af8e91b","","500","500","fixation","","<div class = centerbox><div class = fixation>+</div></div>","none","500","test","","","","","","","","",""
"481","82","poldrack-categorize","124","240884","0.0-124.0","57885ee9-0adb-4623-af6e-a0703af8e91b","","1500","250","stim","","<div class = centerbox><div class = stroop-stim style = ""color:red"">RED</div></div>","66,71,82","1500","test","true","82","500","congruent","red","red","","",""
"-1","-1","poldrack-single-stim","125","241642","0.0-125.0","57885ee9-0adb-4623-af6e-a0703af8e91b","","500","500","fixation","","<div class = centerbox><div class = fixation>+</div></div>","none","500","test","","","","","","","","",""
"395","82","poldrack-categorize","126","244152","0.0-126.0","57885ee9-0adb-4623-af6e-a0703af8e91b","","1500","250","stim","","<div class = centerbox><div class = stroop-stim style = ""color:red"">RED</div></div>","66,71,82","1500","test","true","82","500","congruent","red","red","","",""
"-1","-1","poldrack-single-stim","127","244913","0.0-127.0","57885ee9-0adb-4623-af6e-a0703af8e91b","","500","500","fixation","","<div class = centerbox><div class = fixation>+</div></div>","none","500","test","","","","","","","","",""
"660","66","poldrack-categorize","128","247426","0.0-128.0","57885ee9-0adb-4623-af6e-a0703af8e91b","","1500","250","stim","","<div class = centerbox><div class = stroop-stim style = ""color:blue"">BLUE</div></div>","66,71,82","1500","test","true","66","500","congruent","blue","blue","","",""
"-1","-1","poldrack-single-stim","129","248184","0.0-129.0","57885ee9-0adb-4623-af6e-a0703af8e91b","","500","500","fixation","","<div class = centerbox><div class = fixation>+</div></div>","none","500","test","","","","","","","","",""
"605","82","poldrack-categorize","130","250694","0.0-130.0","57885ee9-0adb-4623-af6e-a0703af8e91b","","1500","250","stim","","<div class = centerbox><div class = stroop-stim style = ""color:red"">RED</div></div>","66,71,82","1500","test","true","82","500","congruent","red","red","","",""
"-1","-1","poldrack-single-stim","131","251452","0.0-131.0","57885ee9-0adb-4623-af6e-a0703af8e91b","","500","500","fixation","","<div class = centerbox><div class = fixation>+</div></div>","none","500","test","","","","","","","","",""
"378","82","poldrack-categorize","132","253962","0.0-132.0","57885ee9-0adb-4623-af6e-a0703af8e91b","","1500","250","stim","","<div class = centerbox><div class = stroop-stim style = ""color:red"">RED</div></div>","66,71,82","1500","test","true","82","500","congruent","red","red","","",""
"-1","-1","poldrack-single-stim","133","254722","0.0-133.0","57885ee9-0adb-4623-af6e-a0703af8e91b","","500","500","fixation","","<div class = centerbox><div class = fixation>+</div></div>","none","500","test","","","","","","","","",""
"401","82","poldrack-categorize","134","257235","0.0-134.0","57885ee9-0adb-4623-af6e-a0703af8e91b","","1500","250","stim","","<div class = centerbox><div class = stroop-stim style = ""color:red"">RED</div></div>","66,71,82","1500","test","true","82","500","congruent","red","red","","",""
"-1","-1","poldrack-single-stim","135","257994","0.0-135.0","57885ee9-0adb-4623-af6e-a0703af8e91b","","500","500","fixation","","<div class = centerbox><div class = fixation>+</div></div>","none","500","test","","","","","","","","",""
"379","82","poldrack-categorize","136","260503","0.0-136.0","57885ee9-0adb-4623-af6e-a0703af8e91b","","1500","250","stim","","<div class = centerbox><div class = stroop-stim style = ""color:red"">RED</div></div>","66,71,82","1500","test","true","82","500","congruent","red","red","","",""
"-1","-1","poldrack-single-stim","137","261261","0.0-137.0","57885ee9-0adb-4623-af6e-a0703af8e91b","","500","500","fixation","","<div class = centerbox><div class = fixation>+</div></div>","none","500","test","","","","","","","","",""
"543","82","poldrack-categorize","138","263771","0.0-138.0","57885ee9-0adb-4623-af6e-a0703af8e91b","","1500","250","stim","","<div class = centerbox><div class = stroop-stim style = ""color:red"">BLUE</div></div>","66,71,82","1500","test","true","82","500","incongruent","red","blue","","",""
"-1","-1","poldrack-single-stim","139","264528","0.0-139.0","57885ee9-0adb-4623-af6e-a0703af8e91b","","500","500","fixation","","<div class = centerbox><div class = fixation>+</div></div>","none","500","test","","","","","","","","",""
"920","66","poldrack-categorize","140","267039","0.0-140.0","57885ee9-0adb-4623-af6e-a0703af8e91b","","1500","250","stim","","<div class = centerbox><div class = stroop-stim style = ""color:blue"">GREEN</div></div>","66,71,82","1500","test","true","66","500","incongruent","blue","green","","",""
"-1","-1","poldrack-single-stim","141","267800","0.0-141.0","57885ee9-0adb-4623-af6e-a0703af8e91b","","500","500","fixation","","<div class = centerbox><div class = fixation>+</div></div>","none","500","test","","","","","","","","",""
"464","66","poldrack-categorize","142","270313","0.0-142.0","57885ee9-0adb-4623-af6e-a0703af8e91b","","1500","250","stim","","<div class = centerbox><div class = stroop-stim style = ""color:blue"">GREEN</div></div>","66,71,82","1500","test","true","66","500","incongruent","blue","green","","",""
"-1","-1","poldrack-single-stim","143","271070","0.0-143.0","57885ee9-0adb-4623-af6e-a0703af8e91b","","500","500","fixation","","<div class = centerbox><div class = fixation>+</div></div>","none","500","test","","","","","","","","",""
"596","71","poldrack-categorize","144","273581","0.0-144.0","57885ee9-0adb-4623-af6e-a0703af8e91b","","1500","250","stim","","<div class = centerbox><div class = stroop-stim style = ""color:green"">GREEN</div></div>","66,71,82","1500","test","true","71","500","congruent","green","green","","",""
"-1","-1","poldrack-single-stim","145","274342","0.0-145.0","57885ee9-0adb-4623-af6e-a0703af8e91b","","500","500","fixation","","<div class = centerbox><div class = fixation>+</div></div>","none","500","test","","","","","","","","",""
"675","71","poldrack-categorize","146","276849","0.0-146.0","57885ee9-0adb-4623-af6e-a0703af8e91b","","1500","250","stim","","<div class = centerbox><div class = stroop-stim style = ""color:green"">BLUE</div></div>","66,71,82","1500","test","true","71","500","incongruent","green","blue","","",""
"-1","-1","poldrack-single-stim","147","277610","0.0-147.0","57885ee9-0adb-4623-af6e-a0703af8e91b","","500","500","fixation","","<div class = centerbox><div class = fixation>+</div></div>","none","500","test","","","","","","","","",""
"622","82","poldrack-categorize","148","280123","0.0-148.0","57885ee9-0adb-4623-af6e-a0703af8e91b","","1500","250","stim","","<div class = centerbox><div class = stroop-stim style = ""color:red"">GREEN</div></div>","66,71,82","1500","test","true","82","500","incongruent","red","green","","",""
"-1","-1","poldrack-single-stim","149","280883","0.0-149.0","57885ee9-0adb-4623-af6e-a0703af8e91b","","500","500","fixation","","<div class = centerbox><div class = fixation>+</div></div>","none","500","test","","","","","","","","",""
"886","66","poldrack-categorize","150","283391","0.0-150.0","57885ee9-0adb-4623-af6e-a0703af8e91b","","1500","250","stim","","<div class = centerbox><div class = stroop-stim style = ""color:blue"">RED</div></div>","66,71,82","1500","test","true","66","500","incongruent","blue","red","","",""
"-1","-1","poldrack-single-stim","151","284151","0.0-151.0","57885ee9-0adb-4623-af6e-a0703af8e91b","","500","500","fixation","","<div class = centerbox><div class = fixation>+</div></div>","none","500","test","","","","","","","","",""
"681","66","poldrack-categorize","152","286661","0.0-152.0","57885ee9-0adb-4623-af6e-a0703af8e91b","","1500","250","stim","","<div class = centerbox><div class = stroop-stim style = ""color:blue"">GREEN</div></div>","66,71,82","1500","test","true","66","500","incongruent","blue","green","","",""
"-1","-1","poldrack-single-stim","153","287419","0.0-153.0","57885ee9-0adb-4623-af6e-a0703af8e91b","","500","500","fixation","","<div class = centerbox><div class = fixation>+</div></div>","none","500","test","","","","","","","","",""
"563","82","poldrack-categorize","154","289933","0.0-154.0","57885ee9-0adb-4623-af6e-a0703af8e91b","","1500","250","stim","","<div class = centerbox><div class = stroop-stim style = ""color:red"">RED</div></div>","66,71,82","1500","test","true","82","500","congruent","red","red","","",""
"-1","-1","poldrack-single-stim","155","290693","0.0-155.0","57885ee9-0adb-4623-af6e-a0703af8e91b","","500","500","fixation","","<div class = centerbox><div class = fixation>+</div></div>","none","500","test","","","","","","","","",""
"562","82","poldrack-categorize","156","293206","0.0-156.0","57885ee9-0adb-4623-af6e-a0703af8e91b","","1500","250","stim","","<div class = centerbox><div class = stroop-stim style = ""color:red"">GREEN</div></div>","66,71,82","1500","test","true","82","500","incongruent","red","green","","",""
"-1","-1","poldrack-single-stim","157","293964","0.0-157.0","57885ee9-0adb-4623-af6e-a0703af8e91b","","500","500","fixation","","<div class = centerbox><div class = fixation>+</div></div>","none","500","test","","","","","","","","",""
"485","82","poldrack-categorize","158","296474","0.0-158.0","57885ee9-0adb-4623-af6e-a0703af8e91b","","1500","250","stim","","<div class = centerbox><div class = stroop-stim style = ""color:red"">GREEN</div></div>","66,71,82","1500","test","true","82","500","incongruent","red","green","","",""
"-1","-1","poldrack-single-stim","159","297235","0.0-159.0","57885ee9-0adb-4623-af6e-a0703af8e91b","","500","500","fixation","","<div class = centerbox><div class = fixation>+</div></div>","none","500","test","","","","","","","","",""
"811","66","poldrack-categorize","160","299748","0.0-160.0","57885ee9-0adb-4623-af6e-a0703af8e91b","","1500","250","stim","","<div class = centerbox><div class = stroop-stim style = ""color:blue"">GREEN</div></div>","66,71,82","1500","test","true","66","500","incongruent","blue","green","","",""
"-1","-1","poldrack-single-stim","161","300508","0.0-161.0","57885ee9-0adb-4623-af6e-a0703af8e91b","","500","500","fixation","","<div class = centerbox><div class = fixation>+</div></div>","none","500","test","","","","","","","","",""
"436","71","poldrack-categorize","162","303019","0.0-162.0","57885ee9-0adb-4623-af6e-a0703af8e91b","","1500","250","stim","","<div class = centerbox><div class = stroop-stim style = ""color:green"">RED</div></div>","66,71,82","1500","test","true","71","500","incongruent","green","red","","",""
"-1","-1","poldrack-single-stim","163","303777","0.0-163.0","57885ee9-0adb-4623-af6e-a0703af8e91b","","500","500","fixation","","<div class = centerbox><div class = fixation>+</div></div>","none","500","test","","","","","","","","",""
"600","66","poldrack-categorize","164","306290","0.0-164.0","57885ee9-0adb-4623-af6e-a0703af8e91b","","1500","250","stim","","<div class = centerbox><div class = stroop-stim style = ""color:blue"">BLUE</div></div>","66,71,82","1500","test","true","66","500","congruent","blue","blue","","",""
"-1","-1","poldrack-single-stim","165","307050","0.0-165.0","57885ee9-0adb-4623-af6e-a0703af8e91b","","500","500","fixation","","<div class = centerbox><div class = fixation>+</div></div>","none","500","test","","","","","","","","",""
"629","71","poldrack-categorize","166","309558","0.0-166.0","57885ee9-0adb-4623-af6e-a0703af8e91b","","1500","250","stim","","<div class = centerbox><div class = stroop-stim style = ""color:green"">GREEN</div></div>","66,71,82","1500","test","true","71","500","congruent","green","green","","",""
"-1","-1","poldrack-single-stim","167","310318","0.0-167.0","57885ee9-0adb-4623-af6e-a0703af8e91b","","500","500","fixation","","<div class = centerbox><div class = fixation>+</div></div>","none","500","test","","","","","","","","",""
"416","71","poldrack-categorize","168","312831","0.0-168.0","57885ee9-0adb-4623-af6e-a0703af8e91b","","1500","250","stim","","<div class = centerbox><div class = stroop-stim style = ""color:green"">BLUE</div></div>","66,71,82","1500","test","true","71","500","incongruent","green","blue","","",""
"-1","-1","poldrack-single-stim","169","313590","0.0-169.0","57885ee9-0adb-4623-af6e-a0703af8e91b","","500","500","fixation","","<div class = centerbox><div class = fixation>+</div></div>","none","500","test","","","","","","","","",""
"547","82","poldrack-categorize","170","316099","0.0-170.0","57885ee9-0adb-4623-af6e-a0703af8e91b","","1500","250","stim","","<div class = centerbox><div class = stroop-stim style = ""color:blue"">RED</div></div>","66,71,82","1500","test","false","66","500","incongruent","blue","red","","",""
"-1","-1","poldrack-single-stim","171","316858","0.0-171.0","57885ee9-0adb-4623-af6e-a0703af8e91b","","500","500","fixation","","<div class = centerbox><div class = fixation>+</div></div>","none","500","test","","","","","","","","",""
"1367","71","poldrack-categorize","172","319362","0.0-172.0","57885ee9-0adb-4623-af6e-a0703af8e91b","","1500","250","stim","","<div class = centerbox><div class = stroop-stim style = ""color:green"">RED</div></div>","66,71,82","1500","test","true","71","500","incongruent","green","red","","",""
"-1","-1","poldrack-single-stim","173","320122","0.0-173.0","57885ee9-0adb-4623-af6e-a0703af8e91b","","500","500","fixation","","<div class = centerbox><div class = fixation>+</div></div>","none","500","test","","","","","","","","",""
"1084","82","poldrack-categorize","174","322635","0.0-174.0","57885ee9-0adb-4623-af6e-a0703af8e91b","","1500","250","stim","","<div class = centerbox><div class = stroop-stim style = ""color:red"">BLUE</div></div>","66,71,82","1500","test","true","82","500","incongruent","red","blue","","",""
"-1","-1","poldrack-single-stim","175","323393","0.0-175.0","57885ee9-0adb-4623-af6e-a0703af8e91b","","500","500","fixation","","<div class = centerbox><div class = fixation>+</div></div>","none","500","test","","","","","","","","",""
"550","82","poldrack-categorize","176","325903","0.0-176.0","57885ee9-0adb-4623-af6e-a0703af8e91b","","1500","250","stim","","<div class = centerbox><div class = stroop-stim style = ""color:red"">BLUE</div></div>","66,71,82","1500","test","true","82","500","incongruent","red","blue","","",""
"-1","-1","poldrack-single-stim","177","326664","0.0-177.0","57885ee9-0adb-4623-af6e-a0703af8e91b","","500","500","fixation","","<div class = centerbox><div class = fixation>+</div></div>","none","500","test","","","","","","","","",""
"573","82","poldrack-categorize","178","329177","0.0-178.0","57885ee9-0adb-4623-af6e-a0703af8e91b","","1500","250","stim","","<div class = centerbox><div class = stroop-stim style = ""color:red"">RED</div></div>","66,71,82","1500","test","true","82","500","congruent","red","red","","",""
"-1","-1","poldrack-single-stim","179","329935","0.0-179.0","57885ee9-0adb-4623-af6e-a0703af8e91b","","500","500","fixation","","<div class = centerbox><div class = fixation>+</div></div>","none","500","test","","","","","","","","",""
"877","71","poldrack-categorize","180","332451","0.0-180.0","57885ee9-0adb-4623-af6e-a0703af8e91b","","1500","250","stim","","<div class = centerbox><div class = stroop-stim style = ""color:green"">RED</div></div>","66,71,82","1500","test","true","71","500","incongruent","green","red","","",""
"-1","-1","poldrack-single-stim","181","333209","0.0-181.0","57885ee9-0adb-4623-af6e-a0703af8e91b","","500","500","fixation","","<div class = centerbox><div class = fixation>+</div></div>","none","500","test","","","","","","","","",""
"661","82","poldrack-categorize","182","335719","0.0-182.0","57885ee9-0adb-4623-af6e-a0703af8e91b","","1500","250","stim","","<div class = centerbox><div class = stroop-stim style = ""color:red"">RED</div></div>","66,71,82","1500","test","true","82","500","congruent","red","red","","",""
"-1","-1","poldrack-single-stim","183","336477","0.0-183.0","57885ee9-0adb-4623-af6e-a0703af8e91b","","500","500","fixation","","<div class = centerbox><div class = fixation>+</div></div>","none","500","test","","","","","","","","",""
"865","82","poldrack-categorize","184","338987","0.0-184.0","57885ee9-0adb-4623-af6e-a0703af8e91b","","1500","250","stim","","<div class = centerbox><div class = stroop-stim style = ""color:red"">GREEN</div></div>","66,71,82","1500","test","true","82","500","incongruent","red","green","","",""
"-1","-1","poldrack-single-stim","185","339741","0.0-185.0","57885ee9-0adb-4623-af6e-a0703af8e91b","","500","500","fixation","","<div class = centerbox><div class = fixation>+</div></div>","none","500","test","","","","","","","","",""
"502","82","poldrack-categorize","186","342255","0.0-186.0","57885ee9-0adb-4623-af6e-a0703af8e91b","","1500","250","stim","","<div class = centerbox><div class = stroop-stim style = ""color:red"">RED</div></div>","66,71,82","1500","test","true","82","500","congruent","red","red","","",""
"-1","-1","poldrack-single-stim","187","343013","0.0-187.0","57885ee9-0adb-4623-af6e-a0703af8e91b","","500","500","fixation","","<div class = centerbox><div class = fixation>+</div></div>","none","500","test","","","","","","","","",""
"954","71","poldrack-categorize","188","345521","0.0-188.0","57885ee9-0adb-4623-af6e-a0703af8e91b","","1500","250","stim","","<div class = centerbox><div class = stroop-stim style = ""color:green"">GREEN</div></div>","66,71,82","1500","test","true","71","500","congruent","green","green","","",""
"-1","-1","poldrack-single-stim","189","346277","0.0-189.0","57885ee9-0adb-4623-af6e-a0703af8e91b","","500","500","fixation","","<div class = centerbox><div class = fixation>+</div></div>","none","500","test","","","","","","","","",""
"645","66","poldrack-categorize","190","348791","0.0-190.0","57885ee9-0adb-4623-af6e-a0703af8e91b","","1500","250","stim","","<div class = centerbox><div class = stroop-stim style = ""color:blue"">BLUE</div></div>","66,71,82","1500","test","true","66","500","congruent","blue","blue","","",""
"-1","-1","poldrack-single-stim","191","349551","0.0-191.0","57885ee9-0adb-4623-af6e-a0703af8e91b","","500","500","fixation","","<div class = centerbox><div class = fixation>+</div></div>","none","500","test","","","","","","","","",""
"725","71","poldrack-categorize","192","352059","0.0-192.0","57885ee9-0adb-4623-af6e-a0703af8e91b","","1500","250","stim","","<div class = centerbox><div class = stroop-stim style = ""color:green"">GREEN</div></div>","66,71,82","1500","test","true","71","500","congruent","green","green","","",""
"-1","-1","poldrack-single-stim","193","352819","0.0-193.0","57885ee9-0adb-4623-af6e-a0703af8e91b","","500","500","fixation","","<div class = centerbox><div class = fixation>+</div></div>","none","500","test","","","","","","","","",""
"1167","66","poldrack-categorize","194","355332","0.0-194.0","57885ee9-0adb-4623-af6e-a0703af8e91b","","1500","250","stim","","<div class = centerbox><div class = stroop-stim style = ""color:blue"">GREEN</div></div>","66,71,82","1500","test","true","66","500","incongruent","blue","green","","",""
"-1","-1","poldrack-single-stim","195","356093","0.0-195.0","57885ee9-0adb-4623-af6e-a0703af8e91b","","500","500","fixation","","<div class = centerbox><div class = fixation>+</div></div>","none","500","test","","","","","","","","",""
"630","71","poldrack-categorize","196","358606","0.0-196.0","57885ee9-0adb-4623-af6e-a0703af8e91b","","1500","250","stim","","<div class = centerbox><div class = stroop-stim style = ""color:green"">BLUE</div></div>","66,71,82","1500","test","true","71","500","incongruent","green","blue","","",""
"-1","-1","poldrack-single-stim","197","359367","0.0-197.0","57885ee9-0adb-4623-af6e-a0703af8e91b","","500","500","fixation","","<div class = centerbox><div class = fixation>+</div></div>","none","500","test","","","","","","","","",""
"1026","66","poldrack-categorize","198","361880","0.0-198.0","57885ee9-0adb-4623-af6e-a0703af8e91b","","1500","250","stim","","<div class = centerbox><div class = stroop-stim style = ""color:blue"">GREEN</div></div>","66,71,82","1500","test","true","66","500","incongruent","blue","green","","",""
"-1","-1","poldrack-single-stim","199","362636","0.0-199.0","57885ee9-0adb-4623-af6e-a0703af8e91b","","500","500","fixation","","<div class = centerbox><div class = fixation>+</div></div>","none","500","test","","","","","","","","",""
"517","66","poldrack-categorize","200","365148","0.0-200.0","57885ee9-0adb-4623-af6e-a0703af8e91b","","1500","250","stim","","<div class = centerbox><div class = stroop-stim style = ""color:blue"">BLUE</div></div>","66,71,82","1500","test","true","66","500","congruent","blue","blue","","",""
"-1","-1","poldrack-single-stim","201","365906","0.0-201.0","57885ee9-0adb-4623-af6e-a0703af8e91b","","500","500","fixation","","<div class = centerbox><div class = fixation>+</div></div>","none","500","test","","","","","","","","",""
"554","71","poldrack-categorize","202","368412","0.0-202.0","57885ee9-0adb-4623-af6e-a0703af8e91b","","1500","250","stim","","<div class = centerbox><div class = stroop-stim style = ""color:green"">GREEN</div></div>","66,71,82","1500","test","true","71","500","congruent","green","green","","",""
"-1","-1","poldrack-single-stim","203","369171","0.0-203.0","57885ee9-0adb-4623-af6e-a0703af8e91b","","500","500","fixation","","<div class = centerbox><div class = fixation>+</div></div>","none","500","test","","","","","","","","",""
"470","71","poldrack-categorize","204","371684","0.0-204.0","57885ee9-0adb-4623-af6e-a0703af8e91b","","1500","250","stim","","<div class = centerbox><div class = stroop-stim style = ""color:green"">GREEN</div></div>","66,71,82","1500","test","true","71","500","congruent","green","green","","",""
"-1","-1","poldrack-single-stim","205","372444","0.0-205.0","57885ee9-0adb-4623-af6e-a0703af8e91b","","500","500","fixation","","<div class = centerbox><div class = fixation>+</div></div>","none","500","test","","","","","","","","",""
"485","82","poldrack-categorize","206","374958","0.0-206.0","57885ee9-0adb-4623-af6e-a0703af8e91b","","1500","250","stim","","<div class = centerbox><div class = stroop-stim style = ""color:red"">RED</div></div>","66,71,82","1500","test","true","82","500","congruent","red","red","","",""
"-1","-1","poldrack-single-stim","207","375716","0.0-207.0","57885ee9-0adb-4623-af6e-a0703af8e91b","","500","500","fixation","","<div class = centerbox><div class = fixation>+</div></div>","none","500","test","","","","","","","","",""
"864","71","poldrack-categorize","208","378226","0.0-208.0","57885ee9-0adb-4623-af6e-a0703af8e91b","","1500","250","stim","","<div class = centerbox><div class = stroop-stim style = ""color:green"">RED</div></div>","66,71,82","1500","test","true","71","500","incongruent","green","red","","",""
"-1","-1","poldrack-single-stim","209","378984","0.0-209.0","57885ee9-0adb-4623-af6e-a0703af8e91b","","500","500","fixation","","<div class = centerbox><div class = fixation>+</div></div>","none","500","test","","","","","","","","",""
"756","71","poldrack-categorize","210","381494","0.0-210.0","57885ee9-0adb-4623-af6e-a0703af8e91b","","1500","250","stim","","<div class = centerbox><div class = stroop-stim style = ""color:green"">GREEN</div></div>","66,71,82","1500","test","true","71","500","congruent","green","green","","",""
"-1","-1","poldrack-single-stim","211","382254","0.0-211.0","57885ee9-0adb-4623-af6e-a0703af8e91b","","500","500","fixation","","<div class = centerbox><div class = fixation>+</div></div>","none","500","test","","","","","","","","",""
"698","82","poldrack-categorize","212","384767","0.0-212.0","57885ee9-0adb-4623-af6e-a0703af8e91b","","1500","250","stim","","<div class = centerbox><div class = stroop-stim style = ""color:red"">GREEN</div></div>","66,71,82","1500","test","true","82","500","incongruent","red","green","","",""
"-1","-1","poldrack-single-stim","213","385526","0.0-213.0","57885ee9-0adb-4623-af6e-a0703af8e91b","","500","500","fixation","","<div class = centerbox><div class = fixation>+</div></div>","none","500","test","","","","","","","","",""
"717","71","poldrack-categorize","214","388035","0.0-214.0","57885ee9-0adb-4623-af6e-a0703af8e91b","","1500","250","stim","","<div class = centerbox><div class = stroop-stim style = ""color:green"">BLUE</div></div>","66,71,82","1500","test","true","71","500","incongruent","green","blue","","",""
"-1","-1","poldrack-single-stim","215","388794","0.0-215.0","57885ee9-0adb-4623-af6e-a0703af8e91b","","500","500","fixation","","<div class = centerbox><div class = fixation>+</div></div>","none","500","test","","","","","","","","",""
"674","66","poldrack-categorize","216","391303","0.0-216.0","57885ee9-0adb-4623-af6e-a0703af8e91b","","1500","250","stim","","<div class = centerbox><div class = stroop-stim style = ""color:blue"">GREEN</div></div>","66,71,82","1500","test","true","66","500","incongruent","blue","green","","",""
"-1","-1","poldrack-single-stim","217","392064","0.0-217.0","57885ee9-0adb-4623-af6e-a0703af8e91b","","500","500","fixation","","<div class = centerbox><div class = fixation>+</div></div>","none","500","test","","","","","","","","",""
"544","71","poldrack-categorize","218","394577","0.0-218.0","57885ee9-0adb-4623-af6e-a0703af8e91b","","1500","250","stim","","<div class = centerbox><div class = stroop-stim style = ""color:green"">GREEN</div></div>","66,71,82","1500","test","true","71","500","congruent","green","green","","",""
"-1","-1","poldrack-single-stim","219","395334","0.0-219.0","57885ee9-0adb-4623-af6e-a0703af8e91b","","500","500","fixation","","<div class = centerbox><div class = fixation>+</div></div>","none","500","test","","","","","","","","",""
"539","82","poldrack-categorize","220","397845","0.0-220.0","57885ee9-0adb-4623-af6e-a0703af8e91b","","1500","250","stim","","<div class = centerbox><div class = stroop-stim style = ""color:red"">RED</div></div>","66,71,82","1500","test","true","82","500","congruent","red","red","","",""
"-1","-1","poldrack-single-stim","221","398603","0.0-221.0","57885ee9-0adb-4623-af6e-a0703af8e91b","","500","500","fixation","","<div class = centerbox><div class = fixation>+</div></div>","none","500","test","","","","","","","","",""
"1031","66","poldrack-categorize","222","401113","0.0-222.0","57885ee9-0adb-4623-af6e-a0703af8e91b","","1500","250","stim","","<div class = centerbox><div class = stroop-stim style = ""color:blue"">BLUE</div></div>","66,71,82","1500","test","true","66","500","congruent","blue","blue","","",""
"-1","-1","poldrack-single-stim","223","401874","0.0-223.0","57885ee9-0adb-4623-af6e-a0703af8e91b","","500","500","fixation","","<div class = centerbox><div class = fixation>+</div></div>","none","500","test","","","","","","","","",""
"695","82","poldrack-categorize","224","404387","0.0-224.0","57885ee9-0adb-4623-af6e-a0703af8e91b","","1500","250","stim","","<div class = centerbox><div class = stroop-stim style = ""color:red"">BLUE</div></div>","66,71,82","1500","test","true","82","500","incongruent","red","blue","","",""
"-1","-1","poldrack-single-stim","225","405145","0.0-225.0","57885ee9-0adb-4623-af6e-a0703af8e91b","","500","500","fixation","","<div class = centerbox><div class = fixation>+</div></div>","none","500","test","","","","","","","","",""
"873","66","poldrack-categorize","226","407655","0.0-226.0","57885ee9-0adb-4623-af6e-a0703af8e91b","","1500","250","stim","","<div class = centerbox><div class = stroop-stim style = ""color:blue"">RED</div></div>","66,71,82","1500","test","true","66","500","incongruent","blue","red","","",""
"-1","-1","poldrack-single-stim","227","408413","0.0-227.0","57885ee9-0adb-4623-af6e-a0703af8e91b","","500","500","fixation","","<div class = centerbox><div class = fixation>+</div></div>","none","500","test","","","","","","","","",""
"852","66","poldrack-categorize","228","410923","0.0-228.0","57885ee9-0adb-4623-af6e-a0703af8e91b","","1500","250","stim","","<div class = centerbox><div class = stroop-stim style = ""color:blue"">BLUE</div></div>","66,71,82","1500","test","true","66","500","congruent","blue","blue","","",""
"-1","-1","poldrack-single-stim","229","411683","0.0-229.0","57885ee9-0adb-4623-af6e-a0703af8e91b","","500","500","fixation","","<div class = centerbox><div class = fixation>+</div></div>","none","500","test","","","","","","","","",""
"564","71","poldrack-categorize","230","414191","0.0-230.0","57885ee9-0adb-4623-af6e-a0703af8e91b","","1500","250","stim","","<div class = centerbox><div class = stroop-stim style = ""color:green"">BLUE</div></div>","66,71,82","1500","test","true","71","500","incongruent","green","blue","","",""
"-1","-1","poldrack-single-stim","231","414951","0.0-231.0","57885ee9-0adb-4623-af6e-a0703af8e91b","","500","500","fixation","","<div class = centerbox><div class = fixation>+</div></div>","none","500","test","","","","","","","","",""
"566","71","poldrack-categorize","232","417465","0.0-232.0","57885ee9-0adb-4623-af6e-a0703af8e91b","","1500","250","stim","","<div class = centerbox><div class = stroop-stim style = ""color:green"">GREEN</div></div>","66,71,82","1500","test","true","71","500","congruent","green","green","","",""
"-1","-1","poldrack-single-stim","233","418225","0.0-233.0","57885ee9-0adb-4623-af6e-a0703af8e91b","","500","500","fixation","","<div class = centerbox><div class = fixation>+</div></div>","none","500","test","","","","","","","","",""
"510","82","poldrack-categorize","234","420738","0.0-234.0","57885ee9-0adb-4623-af6e-a0703af8e91b","","1500","250","stim","","<div class = centerbox><div class = stroop-stim style = ""color:red"">BLUE</div></div>","66,71,82","1500","test","true","82","500","incongruent","red","blue","","",""
"-1","-1","poldrack-single-stim","235","421499","0.0-235.0","57885ee9-0adb-4623-af6e-a0703af8e91b","","500","500","fixation","","<div class = centerbox><div class = fixation>+</div></div>","none","500","test","","","","","","","","",""
"522","82","poldrack-categorize","236","424012","0.0-236.0","57885ee9-0adb-4623-af6e-a0703af8e91b","","1500","250","stim","","<div class = centerbox><div class = stroop-stim style = ""color:red"">BLUE</div></div>","66,71,82","1500","test","true","82","500","incongruent","red","blue","","",""
"-1","-1","poldrack-single-stim","237","424770","0.0-237.0","57885ee9-0adb-4623-af6e-a0703af8e91b","","500","500","fixation","","<div class = centerbox><div class = fixation>+</div></div>","none","500","test","","","","","","","","",""
"990","71","poldrack-categorize","238","427280","0.0-238.0","57885ee9-0adb-4623-af6e-a0703af8e91b","","1500","250","stim","","<div class = centerbox><div class = stroop-stim style = ""color:green"">BLUE</div></div>","66,71,82","1500","test","true","71","500","incongruent","green","blue","","",""
"-1","-1","poldrack-single-stim","239","428038","0.0-239.0","57885ee9-0adb-4623-af6e-a0703af8e91b","","500","500","fixation","","<div class = centerbox><div class = fixation>+</div></div>","none","500","test","","","","","","","","",""
"889","82","poldrack-categorize","240","430548","0.0-240.0","57885ee9-0adb-4623-af6e-a0703af8e91b","","1500","250","stim","","<div class = centerbox><div class = stroop-stim style = ""color:red"">BLUE</div></div>","66,71,82","1500","test","true","82","500","incongruent","red","blue","","",""
"-1","-1","poldrack-single-stim","241","431306","0.0-241.0","57885ee9-0adb-4623-af6e-a0703af8e91b","","500","500","fixation","","<div class = centerbox><div class = fixation>+</div></div>","none","500","test","","","","","","","","",""
"701","82","poldrack-categorize","242","433810","0.0-242.0","57885ee9-0adb-4623-af6e-a0703af8e91b","","1500","250","stim","","<div class = centerbox><div class = stroop-stim style = ""color:red"">BLUE</div></div>","66,71,82","1500","test","true","82","500","incongruent","red","blue","","",""
"-1","-1","poldrack-single-stim","243","434571","0.0-243.0","57885ee9-0adb-4623-af6e-a0703af8e91b","","500","500","fixation","","<div class = centerbox><div class = fixation>+</div></div>","none","500","test","","","","","","","","",""
"681","66","poldrack-categorize","244","437084","0.0-244.0","57885ee9-0adb-4623-af6e-a0703af8e91b","","1500","250","stim","","<div class = centerbox><div class = stroop-stim style = ""color:blue"">RED</div></div>","66,71,82","1500","test","true","66","500","incongruent","blue","red","","",""
"52097","","survey-text","245","489442","0.0-246.0","57885ee9-0adb-4623-af6e-a0703af8e91b","","","","post task questions","","","","","","","","","","","","{""Q0"":""Depending on the ink color of the word, I had to type either R, G, or B"",""Q1"":""Pretty easy and common. It was easy to zone out to pay attention to the colors more""}","",""
"1668","13","poldrack-text","246","492113","0.0-247.0","57885ee9-0adb-4623-af6e-a0703af8e91b","<div class = centerbox><p class = center-block-text>Thanks for completing this task!</p><p class = center-block-text>Press <strong>enter</strong> to continue.</p></div>","1668","0","end","","","","","","","","","","","","","stroop","true"
"476155","13","text","247","968312","0.0-248.0","57885ee9-0adb-4623-af6e-a0703af8e91b","","","","","","","","","","","","","","","","","",""
