rt,key_press,trial_type,trial_index,time_elapsed,internal_node_id,subject,text,block_duration,timing_post_trial,trial_id,view_history,stimulus,possible_responses,stim_duration,exp_stage,stim_place,stim_id,condition,correct,correct_response,responses,exp_id,feedback_duration,stim_color,stim_word,credit_var3822,13,text,0,3824,0.0-0.0,82c052f5-f0ff-42cc-9422-6c158fefe05d,,,,,,,,,,,,,,,,,,,,1112,13,poldrack-text,389,348354,0.0-388.0-0.0,82c052f5-f0ff-42cc-9422-6c158fefe05d,<div class = centerbox><p class = center-block-text>Done with instructions. Press <strong>enter</strong> to continue.</p></div>,1112,0,instruction,,,,,,,,,,,,,,,,7508,,poldrack-instructions,390,355862,0.0-388.0-1.0,82c052f5-f0ff-42cc-9422-6c158fefe05d,,,,instruction,"[{""page_index"":0,""viewing_time"":7507}]",,,,,,,,,,,,,,,1750,13,poldrack-text,391,358617,0.0-389.0,82c052f5-f0ff-42cc-9422-6c158fefe05d,"<div class = centerbox><p class = block-text>We will start with a few practice trials. Remember, press the key corresponding to the <strong>ink</strong> color of the word: ""r"" for words colored red, ""b"" for words colored blue, and ""g"" for words colored green.</p><p class = block-text>Press <strong>enter</strong> to begin practice.</p></div>",1750,1000,practice_intro,,,,,,,,,,,,,,,,-1,-1,poldrack-single-stim,392,360129,0.0-390.0,82c052f5-f0ff-42cc-9422-6c158fefe05d,,500,500,fixation,,<div class = centerbox><div class = fixation>+</div></div>,none,500,practice,,,,,,,,,,,959,71,poldrack-categorize,393,362642,0.0-391.0,82c052f5-f0ff-42cc-9422-6c158fefe05d,,1500,250,stim,,"<div class = centerbox><div class = stroop-stim style = ""color:green"">GREEN</div></div>","66,71,82",1500,practice,,,congruent,TRUE,71,,,500,green,green,-1,-1,poldrack-single-stim,394,363403,0.0-392.0,82c052f5-f0ff-42cc-9422-6c158fefe05d,,500,500,fixation,,<div class = centerbox><div class = fixation>+</div></div>,none,500,practice,,,,,,,,,,,580,82,poldrack-categorize,395,365916,0.0-393.0,82c052f5-f0ff-42cc-9422-6c158fefe05d,,1500,250,stim,,"<div class = centerbox><div class = stroop-stim style = ""color:red"">RED</div></div>","66,71,82",1500,practice,,,congruent,TRUE,82,,,500,red,red,-1,-1,poldrack-single-stim,396,366673,0.0-394.0,82c052f5-f0ff-42cc-9422-6c158fefe05d,,500,500,fixation,,<div class = centerbox><div class = fixation>+</div></div>,none,500,practice,,,,,,,,,,,392,66,poldrack-categorize,397,369184,0.0-395.0,82c052f5-f0ff-42cc-9422-6c158fefe05d,,1500,250,stim,,"<div class = centerbox><div class = stroop-stim style = ""color:blue"">BLUE</div></div>","66,71,82",1500,practice,,,congruent,TRUE,66,,,500,blue,blue,-1,-1,poldrack-single-stim,398,369944,0.0-396.0,82c052f5-f0ff-42cc-9422-6c158fefe05d,,500,500,fixation,,<div class = centerbox><div class = fixation>+</div></div>,none,500,practice,,,,,,,,,,,654,71,poldrack-categorize,399,372458,0.0-397.0,82c052f5-f0ff-42cc-9422-6c158fefe05d,,1500,250,stim,,"<div class = centerbox><div class = stroop-stim style = ""color:green"">GREEN</div></div>","66,71,82",1500,practice,,,congruent,TRUE,71,,,500,green,green,-1,-1,poldrack-single-stim,400,373218,0.0-398.0,82c052f5-f0ff-42cc-9422-6c158fefe05d,,500,500,fixation,,<div class = centerbox><div class = fixation>+</div></div>,none,500,practice,,,,,,,,,,,884,82,poldrack-categorize,401,375731,0.0-399.0,82c052f5-f0ff-42cc-9422-6c158fefe05d,,1500,250,stim,,"<div class = centerbox><div class = stroop-stim style = ""color:red"">BLUE</div></div>","66,71,82",1500,practice,,,incongruent,TRUE,82,,,500,red,blue,-1,-1,poldrack-single-stim,402,376492,0.0-400.0,82c052f5-f0ff-42cc-9422-6c158fefe05d,,500,500,fixation,,<div class = centerbox><div class = fixation>+</div></div>,none,500,practice,,,,,,,,,,,666,71,poldrack-categorize,403,379005,0.0-401.0,82c052f5-f0ff-42cc-9422-6c158fefe05d,,1500,250,stim,,"<div class = centerbox><div class = stroop-stim style = ""color:green"">GREEN</div></div>","66,71,82",1500,practice,,,congruent,TRUE,71,,,500,green,green,-1,-1,poldrack-single-stim,404,379760,0.0-402.0,82c052f5-f0ff-42cc-9422-6c158fefe05d,,500,500,fixation,,<div class = centerbox><div class = fixation>+</div></div>,none,500,practice,,,,,,,,,,,518,66,poldrack-categorize,405,382273,0.0-403.0,82c052f5-f0ff-42cc-9422-6c158fefe05d,,1500,250,stim,,"<div class = centerbox><div class = stroop-stim style = ""color:blue"">RED</div></div>","66,71,82",1500,practice,,,incongruent,TRUE,66,,,500,blue,red,-1,-1,poldrack-single-stim,406,383034,0.0-404.0,82c052f5-f0ff-42cc-9422-6c158fefe05d,,500,500,fixation,,<div class = centerbox><div class = fixation>+</div></div>,none,500,practice,,,,,,,,,,,468,82,poldrack-categorize,407,385547,0.0-405.0,82c052f5-f0ff-42cc-9422-6c158fefe05d,,1500,250,stim,,"<div class = centerbox><div class = stroop-stim style = ""color:red"">RED</div></div>","66,71,82",1500,practice,,,congruent,TRUE,82,,,500,red,red,-1,-1,poldrack-single-stim,408,386307,0.0-406.0,82c052f5-f0ff-42cc-9422-6c158fefe05d,,500,500,fixation,,<div class = centerbox><div class = fixation>+</div></div>,none,500,practice,,,,,,,,,,,466,82,poldrack-categorize,409,388821,0.0-407.0,82c052f5-f0ff-42cc-9422-6c158fefe05d,,1500,250,stim,,"<div class = centerbox><div class = stroop-stim style = ""color:red"">RED</div></div>","66,71,82",1500,practice,,,congruent,TRUE,82,,,500,red,red,-1,-1,poldrack-single-stim,410,389575,0.0-408.0,82c052f5-f0ff-42cc-9422-6c158fefe05d,,500,500,fixation,,<div class = centerbox><div class = fixation>+</div></div>,none,500,practice,,,,,,,,,,,741,66,poldrack-categorize,411,392088,0.0-409.0,82c052f5-f0ff-42cc-9422-6c158fefe05d,,1500,250,stim,,"<div class = centerbox><div class = stroop-stim style = ""color:blue"">BLUE</div></div>","66,71,82",1500,practice,,,congruent,TRUE,66,,,500,blue,blue,-1,-1,poldrack-single-stim,412,392849,0.0-410.0,82c052f5-f0ff-42cc-9422-6c158fefe05d,,500,500,fixation,,<div class = centerbox><div class = fixation>+</div></div>,none,500,practice,,,,,,,,,,,747,82,poldrack-categorize,413,395362,0.0-411.0,82c052f5-f0ff-42cc-9422-6c158fefe05d,,1500,250,stim,,"<div class = centerbox><div class = stroop-stim style = ""color:red"">RED</div></div>","66,71,82",1500,practice,,,congruent,TRUE,82,,,500,red,red,-1,-1,poldrack-single-stim,414,396123,0.0-412.0,82c052f5-f0ff-42cc-9422-6c158fefe05d,,500,500,fixation,,<div class = centerbox><div class = fixation>+</div></div>,none,500,practice,,,,,,,,,,,762,71,poldrack-categorize,415,398636,0.0-413.0,82c052f5-f0ff-42cc-9422-6c158fefe05d,,1500,250,stim,,"<div class = centerbox><div class = stroop-stim style = ""color:green"">BLUE</div></div>","66,71,82",1500,practice,,,incongruent,TRUE,71,,,500,green,blue,-1,-1,poldrack-single-stim,416,399397,0.0-414.0,82c052f5-f0ff-42cc-9422-6c158fefe05d,,500,500,fixation,,<div class = centerbox><div class = fixation>+</div></div>,none,500,practice,,,,,,,,,,,739,66,poldrack-categorize,417,401904,0.0-415.0,82c052f5-f0ff-42cc-9422-6c158fefe05d,,1500,250,stim,,"<div class = centerbox><div class = stroop-stim style = ""color:blue"">BLUE</div></div>","66,71,82",1500,practice,,,congruent,TRUE,66,,,500,blue,blue,-1,-1,poldrack-single-stim,418,402664,0.0-416.0,82c052f5-f0ff-42cc-9422-6c158fefe05d,,500,500,fixation,,<div class = centerbox><div class = fixation>+</div></div>,none,500,practice,,,,,,,,,,,683,71,poldrack-categorize,419,405178,0.0-417.0,82c052f5-f0ff-42cc-9422-6c158fefe05d,,1500,250,stim,,"<div class = centerbox><div class = stroop-stim style = ""color:green"">RED</div></div>","66,71,82",1500,practice,,,incongruent,TRUE,71,,,500,green,red,-1,-1,poldrack-single-stim,420,405938,0.0-418.0,82c052f5-f0ff-42cc-9422-6c158fefe05d,,500,500,fixation,,<div class = centerbox><div class = fixation>+</div></div>,none,500,practice,,,,,,,,,,,689,66,poldrack-categorize,421,408451,0.0-419.0,82c052f5-f0ff-42cc-9422-6c158fefe05d,,1500,250,stim,,"<div class = centerbox><div class = stroop-stim style = ""color:blue"">BLUE</div></div>","66,71,82",1500,practice,,,congruent,TRUE,66,,,500,blue,blue,-1,-1,poldrack-single-stim,422,409212,0.0-420.0,82c052f5-f0ff-42cc-9422-6c158fefe05d,,500,500,fixation,,<div class = centerbox><div class = fixation>+</div></div>,none,500,practice,,,,,,,,,,,801,71,poldrack-categorize,423,411725,0.0-421.0,82c052f5-f0ff-42cc-9422-6c158fefe05d,,1500,250,stim,,"<div class = centerbox><div class = stroop-stim style = ""color:green"">BLUE</div></div>","66,71,82",1500,practice,,,incongruent,TRUE,71,,,500,green,blue,-1,-1,poldrack-single-stim,424,412486,0.0-422.0,82c052f5-f0ff-42cc-9422-6c158fefe05d,,500,500,fixation,,<div class = centerbox><div class = fixation>+</div></div>,none,500,practice,,,,,,,,,,,486,71,poldrack-categorize,425,414999,0.0-423.0,82c052f5-f0ff-42cc-9422-6c158fefe05d,,1500,250,stim,,"<div class = centerbox><div class = stroop-stim style = ""color:green"">GREEN</div></div>","66,71,82",1500,practice,,,congruent,TRUE,71,,,500,green,green,-1,-1,poldrack-single-stim,426,415759,0.0-424.0,82c052f5-f0ff-42cc-9422-6c158fefe05d,,500,500,fixation,,<div class = centerbox><div class = fixation>+</div></div>,none,500,practice,,,,,,,,,,,475,82,poldrack-categorize,427,418272,0.0-425.0,82c052f5-f0ff-42cc-9422-6c158fefe05d,,1500,250,stim,,"<div class = centerbox><div class = stroop-stim style = ""color:red"">GREEN</div></div>","66,71,82",1500,practice,,,incongruent,TRUE,82,,,500,red,green,-1,-1,poldrack-single-stim,428,419029,0.0-426.0,82c052f5-f0ff-42cc-9422-6c158fefe05d,,500,500,fixation,,<div class = centerbox><div class = fixation>+</div></div>,none,500,practice,,,,,,,,,,,696,66,poldrack-categorize,429,421540,0.0-427.0,82c052f5-f0ff-42cc-9422-6c158fefe05d,,1500,250,stim,,"<div class = centerbox><div class = stroop-stim style = ""color:blue"">GREEN</div></div>","66,71,82",1500,practice,,,incongruent,TRUE,66,,,500,blue,green,-1,-1,poldrack-single-stim,430,422301,0.0-428.0,82c052f5-f0ff-42cc-9422-6c158fefe05d,,500,500,fixation,,<div class = centerbox><div class = fixation>+</div></div>,none,500,practice,,,,,,,,,,,604,66,poldrack-categorize,431,424814,0.0-429.0,82c052f5-f0ff-42cc-9422-6c158fefe05d,,1500,250,stim,,"<div class = centerbox><div class = stroop-stim style = ""color:blue"">GREEN</div></div>","66,71,82",1500,practice,,,incongruent,TRUE,66,,,500,blue,green,-1,-1,poldrack-single-stim,432,425575,0.0-430.0,82c052f5-f0ff-42cc-9422-6c158fefe05d,,500,500,fixation,,<div class = centerbox><div class = fixation>+</div></div>,none,500,practice,,,,,,,,,,,851,66,poldrack-categorize,433,428088,0.0-431.0,82c052f5-f0ff-42cc-9422-6c158fefe05d,,1500,250,stim,,"<div class = centerbox><div class = stroop-stim style = ""color:blue"">RED</div></div>","66,71,82",1500,practice,,,incongruent,TRUE,66,,,500,blue,red,-1,-1,poldrack-single-stim,434,428848,0.0-432.0,82c052f5-f0ff-42cc-9422-6c158fefe05d,,500,500,fixation,,<div class = centerbox><div class = fixation>+</div></div>,none,500,practice,,,,,,,,,,,665,82,poldrack-categorize,435,431362,0.0-433.0,82c052f5-f0ff-42cc-9422-6c158fefe05d,,1500,250,stim,,"<div class = centerbox><div class = stroop-stim style = ""color:red"">BLUE</div></div>","66,71,82",1500,practice,,,incongruent,TRUE,82,,,500,red,blue,-1,-1,poldrack-single-stim,436,432122,0.0-434.0,82c052f5-f0ff-42cc-9422-6c158fefe05d,,500,500,fixation,,<div class = centerbox><div class = fixation>+</div></div>,none,500,practice,,,,,,,,,,,615,82,poldrack-categorize,437,434635,0.0-435.0,82c052f5-f0ff-42cc-9422-6c158fefe05d,,1500,250,stim,,"<div class = centerbox><div class = stroop-stim style = ""color:red"">GREEN</div></div>","66,71,82",1500,practice,,,incongruent,TRUE,82,,,500,red,green,-1,-1,poldrack-single-stim,438,435396,0.0-436.0,82c052f5-f0ff-42cc-9422-6c158fefe05d,,500,500,fixation,,<div class = centerbox><div class = fixation>+</div></div>,none,500,practice,,,,,,,,,,,740,71,poldrack-categorize,439,437908,0.0-437.0,82c052f5-f0ff-42cc-9422-6c158fefe05d,,1500,250,stim,,"<div class = centerbox><div class = stroop-stim style = ""color:green"">RED</div></div>","66,71,82",1500,practice,,,incongruent,TRUE,71,,,500,green,red,4058,13,poldrack-text,440,442217,0.0-439.0,82c052f5-f0ff-42cc-9422-6c158fefe05d,<div class = centerbox><p class = center-block-text>We will now start the test. Respond exactly like you did during practice.</p><p class = center-block-text>Press <strong>enter</strong> to begin the test.</p></div>,4058,1000,test_intro,,,,,,,,,,,,,,,,-1,-1,poldrack-single-stim,441,443725,0.0-440.0,82c052f5-f0ff-42cc-9422-6c158fefe05d,,500,500,fixation,,<div class = centerbox><div class = fixation>+</div></div>,none,500,test,,,,,,,,,,,662,71,poldrack-categorize,442,446233,0.0-441.0,82c052f5-f0ff-42cc-9422-6c158fefe05d,,1500,250,stim,,"<div class = centerbox><div class = stroop-stim style = ""color:green"">GREEN</div></div>","66,71,82",1500,test,,,congruent,TRUE,71,,,500,green,green,-1,-1,poldrack-single-stim,443,446993,0.0-442.0,82c052f5-f0ff-42cc-9422-6c158fefe05d,,500,500,fixation,,<div class = centerbox><div class = fixation>+</div></div>,none,500,test,,,,,,,,,,,568,82,poldrack-categorize,444,449506,0.0-443.0,82c052f5-f0ff-42cc-9422-6c158fefe05d,,1500,250,stim,,"<div class = centerbox><div class = stroop-stim style = ""color:red"">RED</div></div>","66,71,82",1500,test,,,congruent,TRUE,82,,,500,red,red,-1,-1,poldrack-single-stim,445,450265,0.0-444.0,82c052f5-f0ff-42cc-9422-6c158fefe05d,,500,500,fixation,,<div class = centerbox><div class = fixation>+</div></div>,none,500,test,,,,,,,,,,,538,71,poldrack-categorize,446,452774,0.0-445.0,82c052f5-f0ff-42cc-9422-6c158fefe05d,,1500,250,stim,,"<div class = centerbox><div class = stroop-stim style = ""color:green"">GREEN</div></div>","66,71,82",1500,test,,,congruent,TRUE,71,,,500,green,green,-1,-1,poldrack-single-stim,447,453535,0.0-446.0,82c052f5-f0ff-42cc-9422-6c158fefe05d,,500,500,fixation,,<div class = centerbox><div class = fixation>+</div></div>,none,500,test,,,,,,,,,,,408,66,poldrack-categorize,448,456048,0.0-447.0,82c052f5-f0ff-42cc-9422-6c158fefe05d,,1500,250,stim,,"<div class = centerbox><div class = stroop-stim style = ""color:blue"">BLUE</div></div>","66,71,82",1500,test,,,congruent,TRUE,66,,,500,blue,blue,-1,-1,poldrack-single-stim,449,456809,0.0-448.0,82c052f5-f0ff-42cc-9422-6c158fefe05d,,500,500,fixation,,<div class = centerbox><div class = fixation>+</div></div>,none,500,test,,,,,,,,,,,447,82,poldrack-categorize,450,459322,0.0-449.0,82c052f5-f0ff-42cc-9422-6c158fefe05d,,1500,250,stim,,"<div class = centerbox><div class = stroop-stim style = ""color:red"">RED</div></div>","66,71,82",1500,test,,,congruent,TRUE,82,,,500,red,red,-1,-1,poldrack-single-stim,451,460077,0.0-450.0,82c052f5-f0ff-42cc-9422-6c158fefe05d,,500,500,fixation,,<div class = centerbox><div class = fixation>+</div></div>,none,500,test,,,,,,,,,,,698,66,poldrack-categorize,452,462590,0.0-451.0,82c052f5-f0ff-42cc-9422-6c158fefe05d,,1500,250,stim,,"<div class = centerbox><div class = stroop-stim style = ""color:red"">BLUE</div></div>","66,71,82",1500,test,,,incongruent,FALSE,82,,,500,red,blue,-1,-1,poldrack-single-stim,453,463350,0.0-452.0,82c052f5-f0ff-42cc-9422-6c158fefe05d,,500,500,fixation,,<div class = centerbox><div class = fixation>+</div></div>,none,500,test,,,,,,,,,,,954,71,poldrack-categorize,454,465864,0.0-453.0,82c052f5-f0ff-42cc-9422-6c158fefe05d,,1500,250,stim,,"<div class = centerbox><div class = stroop-stim style = ""color:green"">BLUE</div></div>","66,71,82",1500,test,,,incongruent,TRUE,71,,,500,green,blue,-1,-1,poldrack-single-stim,455,466624,0.0-454.0,82c052f5-f0ff-42cc-9422-6c158fefe05d,,500,500,fixation,,<div class = centerbox><div class = fixation>+</div></div>,none,500,test,,,,,,,,,,,774,66,poldrack-categorize,456,469133,0.0-455.0,82c052f5-f0ff-42cc-9422-6c158fefe05d,,1500,250,stim,,"<div class = centerbox><div class = stroop-stim style = ""color:blue"">BLUE</div></div>","66,71,82",1500,test,,,congruent,TRUE,66,,,500,blue,blue,-1,-1,poldrack-single-stim,457,469892,0.0-456.0,82c052f5-f0ff-42cc-9422-6c158fefe05d,,500,500,fixation,,<div class = centerbox><div class = fixation>+</div></div>,none,500,test,,,,,,,,,,,513,82,poldrack-categorize,458,472405,0.0-457.0,82c052f5-f0ff-42cc-9422-6c158fefe05d,,1500,250,stim,,"<div class = centerbox><div class = stroop-stim style = ""color:red"">RED</div></div>","66,71,82",1500,test,,,congruent,TRUE,82,,,500,red,red,-1,-1,poldrack-single-stim,459,473166,0.0-458.0,82c052f5-f0ff-42cc-9422-6c158fefe05d,,500,500,fixation,,<div class = centerbox><div class = fixation>+</div></div>,none,500,test,,,,,,,,,,,664,66,poldrack-categorize,460,475679,0.0-459.0,82c052f5-f0ff-42cc-9422-6c158fefe05d,,1500,250,stim,,"<div class = centerbox><div class = stroop-stim style = ""color:blue"">BLUE</div></div>","66,71,82",1500,test,,,congruent,TRUE,66,,,500,blue,blue,-1,-1,poldrack-single-stim,461,476440,0.0-460.0,82c052f5-f0ff-42cc-9422-6c158fefe05d,,500,500,fixation,,<div class = centerbox><div class = fixation>+</div></div>,none,500,test,,,,,,,,,,,534,66,poldrack-categorize,462,478949,0.0-461.0,82c052f5-f0ff-42cc-9422-6c158fefe05d,,1500,250,stim,,"<div class = centerbox><div class = stroop-stim style = ""color:blue"">RED</div></div>","66,71,82",1500,test,,,incongruent,TRUE,66,,,500,blue,red,-1,-1,poldrack-single-stim,463,479708,0.0-462.0,82c052f5-f0ff-42cc-9422-6c158fefe05d,,500,500,fixation,,<div class = centerbox><div class = fixation>+</div></div>,none,500,test,,,,,,,,,,,586,71,poldrack-categorize,464,482221,0.0-463.0,82c052f5-f0ff-42cc-9422-6c158fefe05d,,1500,250,stim,,"<div class = centerbox><div class = stroop-stim style = ""color:green"">RED</div></div>","66,71,82",1500,test,,,incongruent,TRUE,71,,,500,green,red,-1,-1,poldrack-single-stim,465,482981,0.0-464.0,82c052f5-f0ff-42cc-9422-6c158fefe05d,,500,500,fixation,,<div class = centerbox><div class = fixation>+</div></div>,none,500,test,,,,,,,,,,,519,82,poldrack-categorize,466,485492,0.0-465.0,82c052f5-f0ff-42cc-9422-6c158fefe05d,,1500,250,stim,,"<div class = centerbox><div class = stroop-stim style = ""color:red"">RED</div></div>","66,71,82",1500,test,,,congruent,TRUE,82,,,500,red,red,-1,-1,poldrack-single-stim,467,486249,0.0-466.0,82c052f5-f0ff-42cc-9422-6c158fefe05d,,500,500,fixation,,<div class = centerbox><div class = fixation>+</div></div>,none,500,test,,,,,,,,,,,539,71,poldrack-categorize,468,488762,0.0-467.0,82c052f5-f0ff-42cc-9422-6c158fefe05d,,1500,250,stim,,"<div class = centerbox><div class = stroop-stim style = ""color:green"">BLUE</div></div>","66,71,82",1500,test,,,incongruent,TRUE,71,,,500,green,blue,-1,-1,poldrack-single-stim,469,489523,0.0-468.0,82c052f5-f0ff-42cc-9422-6c158fefe05d,,500,500,fixation,,<div class = centerbox><div class = fixation>+</div></div>,none,500,test,,,,,,,,,,,666,66,poldrack-categorize,470,492036,0.0-469.0,82c052f5-f0ff-42cc-9422-6c158fefe05d,,1500,250,stim,,"<div class = centerbox><div class = stroop-stim style = ""color:red"">BLUE</div></div>","66,71,82",1500,test,,,incongruent,FALSE,82,,,500,red,blue,-1,-1,poldrack-single-stim,471,492796,0.0-470.0,82c052f5-f0ff-42cc-9422-6c158fefe05d,,500,500,fixation,,<div class = centerbox><div class = fixation>+</div></div>,none,500,test,,,,,,,,,,,576,66,poldrack-categorize,472,495310,0.0-471.0,82c052f5-f0ff-42cc-9422-6c158fefe05d,,1500,250,stim,,"<div class = centerbox><div class = stroop-stim style = ""color:blue"">BLUE</div></div>","66,71,82",1500,test,,,congruent,TRUE,66,,,500,blue,blue,-1,-1,poldrack-single-stim,473,496068,0.0-472.0,82c052f5-f0ff-42cc-9422-6c158fefe05d,,500,500,fixation,,<div class = centerbox><div class = fixation>+</div></div>,none,500,test,,,,,,,,,,,943,82,poldrack-categorize,474,498583,0.0-473.0,82c052f5-f0ff-42cc-9422-6c158fefe05d,,1500,250,stim,,"<div class = centerbox><div class = stroop-stim style = ""color:red"">GREEN</div></div>","66,71,82",1500,test,,,incongruent,TRUE,82,,,500,red,green,-1,-1,poldrack-single-stim,475,499344,0.0-474.0,82c052f5-f0ff-42cc-9422-6c158fefe05d,,500,500,fixation,,<div class = centerbox><div class = fixation>+</div></div>,none,500,test,,,,,,,,,,,668,82,poldrack-categorize,476,501856,0.0-475.0,82c052f5-f0ff-42cc-9422-6c158fefe05d,,1500,250,stim,,"<div class = centerbox><div class = stroop-stim style = ""color:red"">RED</div></div>","66,71,82",1500,test,,,congruent,TRUE,82,,,500,red,red,-1,-1,poldrack-single-stim,477,502612,0.0-476.0,82c052f5-f0ff-42cc-9422-6c158fefe05d,,500,500,fixation,,<div class = centerbox><div class = fixation>+</div></div>,none,500,test,,,,,,,,,,,983,71,poldrack-categorize,478,505125,0.0-477.0,82c052f5-f0ff-42cc-9422-6c158fefe05d,,1500,250,stim,,"<div class = centerbox><div class = stroop-stim style = ""color:green"">RED</div></div>","66,71,82",1500,test,,,incongruent,TRUE,71,,,500,green,red,-1,-1,poldrack-single-stim,479,505882,0.0-478.0,82c052f5-f0ff-42cc-9422-6c158fefe05d,,500,500,fixation,,<div class = centerbox><div class = fixation>+</div></div>,none,500,test,,,,,,,,,,,683,66,poldrack-categorize,480,508393,0.0-479.0,82c052f5-f0ff-42cc-9422-6c158fefe05d,,1500,250,stim,,"<div class = centerbox><div class = stroop-stim style = ""color:blue"">BLUE</div></div>","66,71,82",1500,test,,,congruent,TRUE,66,,,500,blue,blue,-1,-1,poldrack-single-stim,481,509154,0.0-480.0,82c052f5-f0ff-42cc-9422-6c158fefe05d,,500,500,fixation,,<div class = centerbox><div class = fixation>+</div></div>,none,500,test,,,,,,,,,,,913,66,poldrack-categorize,482,511667,0.0-481.0,82c052f5-f0ff-42cc-9422-6c158fefe05d,,1500,250,stim,,"<div class = centerbox><div class = stroop-stim style = ""color:blue"">GREEN</div></div>","66,71,82",1500,test,,,incongruent,TRUE,66,,,500,blue,green,-1,-1,poldrack-single-stim,483,512427,0.0-482.0,82c052f5-f0ff-42cc-9422-6c158fefe05d,,500,500,fixation,,<div class = centerbox><div class = fixation>+</div></div>,none,500,test,,,,,,,,,,,543,82,poldrack-categorize,484,514940,0.0-483.0,82c052f5-f0ff-42cc-9422-6c158fefe05d,,1500,250,stim,,"<div class = centerbox><div class = stroop-stim style = ""color:red"">RED</div></div>","66,71,82",1500,test,,,congruent,TRUE,82,,,500,red,red,-1,-1,poldrack-single-stim,485,515701,0.0-484.0,82c052f5-f0ff-42cc-9422-6c158fefe05d,,500,500,fixation,,<div class = centerbox><div class = fixation>+</div></div>,none,500,test,,,,,,,,,,,550,82,poldrack-categorize,486,518214,0.0-485.0,82c052f5-f0ff-42cc-9422-6c158fefe05d,,1500,250,stim,,"<div class = centerbox><div class = stroop-stim style = ""color:red"">RED</div></div>","66,71,82",1500,test,,,congruent,TRUE,82,,,500,red,red,-1,-1,poldrack-single-stim,487,518975,0.0-486.0,82c052f5-f0ff-42cc-9422-6c158fefe05d,,500,500,fixation,,<div class = centerbox><div class = fixation>+</div></div>,none,500,test,,,,,,,,,,,891,66,poldrack-categorize,488,521488,0.0-487.0,82c052f5-f0ff-42cc-9422-6c158fefe05d,,1500,250,stim,,"<div class = centerbox><div class = stroop-stim style = ""color:blue"">GREEN</div></div>","66,71,82",1500,test,,,incongruent,TRUE,66,,,500,blue,green,-1,-1,poldrack-single-stim,489,522248,0.0-488.0,82c052f5-f0ff-42cc-9422-6c158fefe05d,,500,500,fixation,,<div class = centerbox><div class = fixation>+</div></div>,none,500,test,,,,,,,,,,,939,71,poldrack-categorize,490,524762,0.0-489.0,82c052f5-f0ff-42cc-9422-6c158fefe05d,,1500,250,stim,,"<div class = centerbox><div class = stroop-stim style = ""color:blue"">RED</div></div>","66,71,82",1500,test,,,incongruent,FALSE,66,,,500,blue,red,-1,-1,poldrack-single-stim,491,525522,0.0-490.0,82c052f5-f0ff-42cc-9422-6c158fefe05d,,500,500,fixation,,<div class = centerbox><div class = fixation>+</div></div>,none,500,test,,,,,,,,,,,1303,82,poldrack-categorize,492,528035,0.0-491.0,82c052f5-f0ff-42cc-9422-6c158fefe05d,,1500,250,stim,,"<div class = centerbox><div class = stroop-stim style = ""color:red"">BLUE</div></div>","66,71,82",1500,test,,,incongruent,TRUE,82,,,500,red,blue,-1,-1,poldrack-single-stim,493,528790,0.0-492.0,82c052f5-f0ff-42cc-9422-6c158fefe05d,,500,500,fixation,,<div class = centerbox><div class = fixation>+</div></div>,none,500,test,,,,,,,,,,,618,82,poldrack-categorize,494,531303,0.0-493.0,82c052f5-f0ff-42cc-9422-6c158fefe05d,,1500,250,stim,,"<div class = centerbox><div class = stroop-stim style = ""color:red"">RED</div></div>","66,71,82",1500,test,,,congruent,TRUE,82,,,500,red,red,-1,-1,poldrack-single-stim,495,532060,0.0-494.0,82c052f5-f0ff-42cc-9422-6c158fefe05d,,500,500,fixation,,<div class = centerbox><div class = fixation>+</div></div>,none,500,test,,,,,,,,,,,564,66,poldrack-categorize,496,534571,0.0-495.0,82c052f5-f0ff-42cc-9422-6c158fefe05d,,1500,250,stim,,"<div class = centerbox><div class = stroop-stim style = ""color:blue"">BLUE</div></div>","66,71,82",1500,test,,,congruent,TRUE,66,,,500,blue,blue,-1,-1,poldrack-single-stim,497,535332,0.0-496.0,82c052f5-f0ff-42cc-9422-6c158fefe05d,,500,500,fixation,,<div class = centerbox><div class = fixation>+</div></div>,none,500,test,,,,,,,,,,,837,71,poldrack-categorize,498,537845,0.0-497.0,82c052f5-f0ff-42cc-9422-6c158fefe05d,,1500,250,stim,,"<div class = centerbox><div class = stroop-stim style = ""color:green"">GREEN</div></div>","66,71,82",1500,test,,,congruent,TRUE,71,,,500,green,green,-1,-1,poldrack-single-stim,499,538606,0.0-498.0,82c052f5-f0ff-42cc-9422-6c158fefe05d,,500,500,fixation,,<div class = centerbox><div class = fixation>+</div></div>,none,500,test,,,,,,,,,,,1419,71,poldrack-categorize,500,541119,0.0-499.0,82c052f5-f0ff-42cc-9422-6c158fefe05d,,1500,250,stim,,"<div class = centerbox><div class = stroop-stim style = ""color:green"">RED</div></div>","66,71,82",1500,test,,,incongruent,TRUE,71,,,500,green,red,-1,-1,poldrack-single-stim,501,541879,0.0-500.0,82c052f5-f0ff-42cc-9422-6c158fefe05d,,500,500,fixation,,<div class = centerbox><div class = fixation>+</div></div>,none,500,test,,,,,,,,,,,968,82,poldrack-categorize,502,544392,0.0-501.0,82c052f5-f0ff-42cc-9422-6c158fefe05d,,1500,250,stim,,"<div class = centerbox><div class = stroop-stim style = ""color:red"">GREEN</div></div>","66,71,82",1500,test,,,incongruent,TRUE,82,,,500,red,green,-1,-1,poldrack-single-stim,503,545153,0.0-502.0,82c052f5-f0ff-42cc-9422-6c158fefe05d,,500,500,fixation,,<div class = centerbox><div class = fixation>+</div></div>,none,500,test,,,,,,,,,,,782,66,poldrack-categorize,504,547666,0.0-503.0,82c052f5-f0ff-42cc-9422-6c158fefe05d,,1500,250,stim,,"<div class = centerbox><div class = stroop-stim style = ""color:blue"">BLUE</div></div>","66,71,82",1500,test,,,congruent,TRUE,66,,,500,blue,blue,-1,-1,poldrack-single-stim,505,548427,0.0-504.0,82c052f5-f0ff-42cc-9422-6c158fefe05d,,500,500,fixation,,<div class = centerbox><div class = fixation>+</div></div>,none,500,test,,,,,,,,,,,525,82,poldrack-categorize,506,550940,0.0-505.0,82c052f5-f0ff-42cc-9422-6c158fefe05d,,1500,250,stim,,"<div class = centerbox><div class = stroop-stim style = ""color:red"">RED</div></div>","66,71,82",1500,test,,,congruent,TRUE,82,,,500,red,red,-1,-1,poldrack-single-stim,507,551700,0.0-506.0,82c052f5-f0ff-42cc-9422-6c158fefe05d,,500,500,fixation,,<div class = centerbox><div class = fixation>+</div></div>,none,500,test,,,,,,,,,,,979,71,poldrack-categorize,508,554214,0.0-507.0,82c052f5-f0ff-42cc-9422-6c158fefe05d,,1500,250,stim,,"<div class = centerbox><div class = stroop-stim style = ""color:green"">BLUE</div></div>","66,71,82",1500,test,,,incongruent,TRUE,71,,,500,green,blue,-1,-1,poldrack-single-stim,509,554974,0.0-508.0,82c052f5-f0ff-42cc-9422-6c158fefe05d,,500,500,fixation,,<div class = centerbox><div class = fixation>+</div></div>,none,500,test,,,,,,,,,,,824,82,poldrack-categorize,510,557487,0.0-509.0,82c052f5-f0ff-42cc-9422-6c158fefe05d,,1500,250,stim,,"<div class = centerbox><div class = stroop-stim style = ""color:red"">GREEN</div></div>","66,71,82",1500,test,,,incongruent,TRUE,82,,,500,red,green,-1,-1,poldrack-single-stim,511,558248,0.0-510.0,82c052f5-f0ff-42cc-9422-6c158fefe05d,,500,500,fixation,,<div class = centerbox><div class = fixation>+</div></div>,none,500,test,,,,,,,,,,,886,71,poldrack-categorize,512,560757,0.0-511.0,82c052f5-f0ff-42cc-9422-6c158fefe05d,,1500,250,stim,,"<div class = centerbox><div class = stroop-stim style = ""color:green"">RED</div></div>","66,71,82",1500,test,,,incongruent,TRUE,71,,,500,green,red,-1,-1,poldrack-single-stim,513,561516,0.0-512.0,82c052f5-f0ff-42cc-9422-6c158fefe05d,,500,500,fixation,,<div class = centerbox><div class = fixation>+</div></div>,none,500,test,,,,,,,,,,,890,71,poldrack-categorize,514,564029,0.0-513.0,82c052f5-f0ff-42cc-9422-6c158fefe05d,,1500,250,stim,,"<div class = centerbox><div class = stroop-stim style = ""color:green"">BLUE</div></div>","66,71,82",1500,test,,,incongruent,TRUE,71,,,500,green,blue,-1,-1,poldrack-single-stim,515,564790,0.0-514.0,82c052f5-f0ff-42cc-9422-6c158fefe05d,,500,500,fixation,,<div class = centerbox><div class = fixation>+</div></div>,none,500,test,,,,,,,,,,,913,66,poldrack-categorize,516,567303,0.0-515.0,82c052f5-f0ff-42cc-9422-6c158fefe05d,,1500,250,stim,,"<div class = centerbox><div class = stroop-stim style = ""color:blue"">RED</div></div>","66,71,82",1500,test,,,incongruent,TRUE,66,,,500,blue,red,-1,-1,poldrack-single-stim,517,568063,0.0-516.0,82c052f5-f0ff-42cc-9422-6c158fefe05d,,500,500,fixation,,<div class = centerbox><div class = fixation>+</div></div>,none,500,test,,,,,,,,,,,630,71,poldrack-categorize,518,570577,0.0-517.0,82c052f5-f0ff-42cc-9422-6c158fefe05d,,1500,250,stim,,"<div class = centerbox><div class = stroop-stim style = ""color:green"">GREEN</div></div>","66,71,82",1500,test,,,congruent,TRUE,71,,,500,green,green,-1,-1,poldrack-single-stim,519,571337,0.0-518.0,82c052f5-f0ff-42cc-9422-6c158fefe05d,,500,500,fixation,,<div class = centerbox><div class = fixation>+</div></div>,none,500,test,,,,,,,,,,,724,71,poldrack-categorize,520,573850,0.0-519.0,82c052f5-f0ff-42cc-9422-6c158fefe05d,,1500,250,stim,,"<div class = centerbox><div class = stroop-stim style = ""color:green"">BLUE</div></div>","66,71,82",1500,test,,,incongruent,TRUE,71,,,500,green,blue,-1,-1,poldrack-single-stim,521,574611,0.0-520.0,82c052f5-f0ff-42cc-9422-6c158fefe05d,,500,500,fixation,,<div class = centerbox><div class = fixation>+</div></div>,none,500,test,,,,,,,,,,,426,71,poldrack-categorize,522,577124,0.0-521.0,82c052f5-f0ff-42cc-9422-6c158fefe05d,,1500,250,stim,,"<div class = centerbox><div class = stroop-stim style = ""color:green"">GREEN</div></div>","66,71,82",1500,test,,,congruent,TRUE,71,,,500,green,green,-1,-1,poldrack-single-stim,523,577885,0.0-522.0,82c052f5-f0ff-42cc-9422-6c158fefe05d,,500,500,fixation,,<div class = centerbox><div class = fixation>+</div></div>,none,500,test,,,,,,,,,,,419,71,poldrack-categorize,524,580392,0.0-523.0,82c052f5-f0ff-42cc-9422-6c158fefe05d,,1500,250,stim,,"<div class = centerbox><div class = stroop-stim style = ""color:green"">GREEN</div></div>","66,71,82",1500,test,,,congruent,TRUE,71,,,500,green,green,-1,-1,poldrack-single-stim,525,581153,0.0-524.0,82c052f5-f0ff-42cc-9422-6c158fefe05d,,500,500,fixation,,<div class = centerbox><div class = fixation>+</div></div>,none,500,test,,,,,,,,,,,452,71,poldrack-categorize,526,583666,0.0-525.0,82c052f5-f0ff-42cc-9422-6c158fefe05d,,1500,250,stim,,"<div class = centerbox><div class = stroop-stim style = ""color:green"">GREEN</div></div>","66,71,82",1500,test,,,congruent,TRUE,71,,,500,green,green,-1,-1,poldrack-single-stim,527,584426,0.0-526.0,82c052f5-f0ff-42cc-9422-6c158fefe05d,,500,500,fixation,,<div class = centerbox><div class = fixation>+</div></div>,none,500,test,,,,,,,,,,,618,66,poldrack-categorize,528,586939,0.0-527.0,82c052f5-f0ff-42cc-9422-6c158fefe05d,,1500,250,stim,,"<div class = centerbox><div class = stroop-stim style = ""color:blue"">BLUE</div></div>","66,71,82",1500,test,,,congruent,TRUE,66,,,500,blue,blue,-1,-1,poldrack-single-stim,529,587700,0.0-528.0,82c052f5-f0ff-42cc-9422-6c158fefe05d,,500,500,fixation,,<div class = centerbox><div class = fixation>+</div></div>,none,500,test,,,,,,,,,,,1008,82,poldrack-categorize,530,590213,0.0-529.0,82c052f5-f0ff-42cc-9422-6c158fefe05d,,1500,250,stim,,"<div class = centerbox><div class = stroop-stim style = ""color:red"">BLUE</div></div>","66,71,82",1500,test,,,incongruent,TRUE,82,,,500,red,blue,-1,-1,poldrack-single-stim,531,590974,0.0-530.0,82c052f5-f0ff-42cc-9422-6c158fefe05d,,500,500,fixation,,<div class = centerbox><div class = fixation>+</div></div>,none,500,test,,,,,,,,,,,854,71,poldrack-categorize,532,593487,0.0-531.0,82c052f5-f0ff-42cc-9422-6c158fefe05d,,1500,250,stim,,"<div class = centerbox><div class = stroop-stim style = ""color:green"">GREEN</div></div>","66,71,82",1500,test,,,congruent,TRUE,71,,,500,green,green,-1,-1,poldrack-single-stim,533,594243,0.0-532.0,82c052f5-f0ff-42cc-9422-6c158fefe05d,,500,500,fixation,,<div class = centerbox><div class = fixation>+</div></div>,none,500,test,,,,,,,,,,,586,66,poldrack-categorize,534,596755,0.0-533.0,82c052f5-f0ff-42cc-9422-6c158fefe05d,,1500,250,stim,,"<div class = centerbox><div class = stroop-stim style = ""color:blue"">BLUE</div></div>","66,71,82",1500,test,,,congruent,TRUE,66,,,500,blue,blue,-1,-1,poldrack-single-stim,535,597515,0.0-534.0,82c052f5-f0ff-42cc-9422-6c158fefe05d,,500,500,fixation,,<div class = centerbox><div class = fixation>+</div></div>,none,500,test,,,,,,,,,,,999,66,poldrack-categorize,536,600029,0.0-535.0,82c052f5-f0ff-42cc-9422-6c158fefe05d,,1500,250,stim,,"<div class = centerbox><div class = stroop-stim style = ""color:blue"">GREEN</div></div>","66,71,82",1500,test,,,incongruent,TRUE,66,,,500,blue,green,-1,-1,poldrack-single-stim,537,600789,0.0-536.0,82c052f5-f0ff-42cc-9422-6c158fefe05d,,500,500,fixation,,<div class = centerbox><div class = fixation>+</div></div>,none,500,test,,,,,,,,,,,886,82,poldrack-categorize,538,603302,0.0-537.0,82c052f5-f0ff-42cc-9422-6c158fefe05d,,1500,250,stim,,"<div class = centerbox><div class = stroop-stim style = ""color:red"">RED</div></div>","66,71,82",1500,test,,,congruent,TRUE,82,,,500,red,red,-1,-1,poldrack-single-stim,539,604063,0.0-538.0,82c052f5-f0ff-42cc-9422-6c158fefe05d,,500,500,fixation,,<div class = centerbox><div class = fixation>+</div></div>,none,500,test,,,,,,,,,,,1020,66,poldrack-categorize,540,606576,0.0-539.0,82c052f5-f0ff-42cc-9422-6c158fefe05d,,1500,250,stim,,"<div class = centerbox><div class = stroop-stim style = ""color:blue"">RED</div></div>","66,71,82",1500,test,,,incongruent,TRUE,66,,,500,blue,red,-1,-1,poldrack-single-stim,541,607334,0.0-540.0,82c052f5-f0ff-42cc-9422-6c158fefe05d,,500,500,fixation,,<div class = centerbox><div class = fixation>+</div></div>,none,500,test,,,,,,,,,,,640,82,poldrack-categorize,542,609844,0.0-541.0,82c052f5-f0ff-42cc-9422-6c158fefe05d,,1500,250,stim,,"<div class = centerbox><div class = stroop-stim style = ""color:red"">RED</div></div>","66,71,82",1500,test,,,congruent,TRUE,82,,,500,red,red,-1,-1,poldrack-single-stim,543,610605,0.0-542.0,82c052f5-f0ff-42cc-9422-6c158fefe05d,,500,500,fixation,,<div class = centerbox><div class = fixation>+</div></div>,none,500,test,,,,,,,,,,,1070,66,poldrack-categorize,544,613118,0.0-543.0,82c052f5-f0ff-42cc-9422-6c158fefe05d,,1500,250,stim,,"<div class = centerbox><div class = stroop-stim style = ""color:blue"">GREEN</div></div>","66,71,82",1500,test,,,incongruent,TRUE,66,,,500,blue,green,-1,-1,poldrack-single-stim,545,613876,0.0-544.0,82c052f5-f0ff-42cc-9422-6c158fefe05d,,500,500,fixation,,<div class = centerbox><div class = fixation>+</div></div>,none,500,test,,,,,,,,,,,770,66,poldrack-categorize,546,616386,0.0-545.0,82c052f5-f0ff-42cc-9422-6c158fefe05d,,1500,250,stim,,"<div class = centerbox><div class = stroop-stim style = ""color:blue"">GREEN</div></div>","66,71,82",1500,test,,,incongruent,TRUE,66,,,500,blue,green,-1,-1,poldrack-single-stim,547,617146,0.0-546.0,82c052f5-f0ff-42cc-9422-6c158fefe05d,,500,500,fixation,,<div class = centerbox><div class = fixation>+</div></div>,none,500,test,,,,,,,,,,,823,66,poldrack-categorize,548,619658,0.0-547.0,82c052f5-f0ff-42cc-9422-6c158fefe05d,,1500,250,stim,,"<div class = centerbox><div class = stroop-stim style = ""color:blue"">RED</div></div>","66,71,82",1500,test,,,incongruent,TRUE,66,,,500,blue,red,-1,-1,poldrack-single-stim,549,620414,0.0-548.0,82c052f5-f0ff-42cc-9422-6c158fefe05d,,500,500,fixation,,<div class = centerbox><div class = fixation>+</div></div>,none,500,test,,,,,,,,,,,546,66,poldrack-categorize,550,622927,0.0-549.0,82c052f5-f0ff-42cc-9422-6c158fefe05d,,1500,250,stim,,"<div class = centerbox><div class = stroop-stim style = ""color:blue"">BLUE</div></div>","66,71,82",1500,test,,,congruent,TRUE,66,,,500,blue,blue,-1,-1,poldrack-single-stim,551,623684,0.0-550.0,82c052f5-f0ff-42cc-9422-6c158fefe05d,,500,500,fixation,,<div class = centerbox><div class = fixation>+</div></div>,none,500,test,,,,,,,,,,,502,66,poldrack-categorize,552,626195,0.0-551.0,82c052f5-f0ff-42cc-9422-6c158fefe05d,,1500,250,stim,,"<div class = centerbox><div class = stroop-stim style = ""color:blue"">BLUE</div></div>","66,71,82",1500,test,,,congruent,TRUE,66,,,500,blue,blue,-1,-1,poldrack-single-stim,553,626956,0.0-552.0,82c052f5-f0ff-42cc-9422-6c158fefe05d,,500,500,fixation,,<div class = centerbox><div class = fixation>+</div></div>,none,500,test,,,,,,,,,,,668,71,poldrack-categorize,554,629469,0.0-553.0,82c052f5-f0ff-42cc-9422-6c158fefe05d,,1500,250,stim,,"<div class = centerbox><div class = stroop-stim style = ""color:green"">GREEN</div></div>","66,71,82",1500,test,,,congruent,TRUE,71,,,500,green,green,-1,-1,poldrack-single-stim,555,630229,0.0-554.0,82c052f5-f0ff-42cc-9422-6c158fefe05d,,500,500,fixation,,<div class = centerbox><div class = fixation>+</div></div>,none,500,test,,,,,,,,,,,1188,82,poldrack-categorize,556,632742,0.0-555.0,82c052f5-f0ff-42cc-9422-6c158fefe05d,,1500,250,stim,,"<div class = centerbox><div class = stroop-stim style = ""color:red"">GREEN</div></div>","66,71,82",1500,test,,,incongruent,TRUE,82,,,500,red,green,-1,-1,poldrack-single-stim,557,633502,0.0-556.0,82c052f5-f0ff-42cc-9422-6c158fefe05d,,500,500,fixation,,<div class = centerbox><div class = fixation>+</div></div>,none,500,test,,,,,,,,,,,713,82,poldrack-categorize,558,636016,0.0-557.0,82c052f5-f0ff-42cc-9422-6c158fefe05d,,1500,250,stim,,"<div class = centerbox><div class = stroop-stim style = ""color:red"">RED</div></div>","66,71,82",1500,test,,,congruent,TRUE,82,,,500,red,red,-1,-1,poldrack-single-stim,559,636771,0.0-558.0,82c052f5-f0ff-42cc-9422-6c158fefe05d,,500,500,fixation,,<div class = centerbox><div class = fixation>+</div></div>,none,500,test,,,,,,,,,,,565,71,poldrack-categorize,560,639284,0.0-559.0,82c052f5-f0ff-42cc-9422-6c158fefe05d,,1500,250,stim,,"<div class = centerbox><div class = stroop-stim style = ""color:green"">GREEN</div></div>","66,71,82",1500,test,,,congruent,TRUE,71,,,500,green,green,-1,-1,poldrack-single-stim,561,640041,0.0-560.0,82c052f5-f0ff-42cc-9422-6c158fefe05d,,500,500,fixation,,<div class = centerbox><div class = fixation>+</div></div>,none,500,test,,,,,,,,,,,504,71,poldrack-categorize,562,642552,0.0-561.0,82c052f5-f0ff-42cc-9422-6c158fefe05d,,1500,250,stim,,"<div class = centerbox><div class = stroop-stim style = ""color:green"">GREEN</div></div>","66,71,82",1500,test,,,congruent,TRUE,71,,,500,green,green,-1,-1,poldrack-single-stim,563,643313,0.0-562.0,82c052f5-f0ff-42cc-9422-6c158fefe05d,,500,500,fixation,,<div class = centerbox><div class = fixation>+</div></div>,none,500,test,,,,,,,,,,,806,66,poldrack-categorize,564,645828,0.0-563.0,82c052f5-f0ff-42cc-9422-6c158fefe05d,,1500,250,stim,,"<div class = centerbox><div class = stroop-stim style = ""color:blue"">GREEN</div></div>","66,71,82",1500,test,,,incongruent,TRUE,66,,,500,blue,green,-1,-1,poldrack-single-stim,565,646586,0.0-564.0,82c052f5-f0ff-42cc-9422-6c158fefe05d,,500,500,fixation,,<div class = centerbox><div class = fixation>+</div></div>,none,500,test,,,,,,,,,,,1077,71,poldrack-categorize,566,649100,0.0-565.0,82c052f5-f0ff-42cc-9422-6c158fefe05d,,1500,250,stim,,"<div class = centerbox><div class = stroop-stim style = ""color:green"">RED</div></div>","66,71,82",1500,test,,,incongruent,TRUE,71,,,500,green,red,-1,-1,poldrack-single-stim,567,649860,0.0-566.0,82c052f5-f0ff-42cc-9422-6c158fefe05d,,500,500,fixation,,<div class = centerbox><div class = fixation>+</div></div>,none,500,test,,,,,,,,,,,994,82,poldrack-categorize,568,652373,0.0-567.0,82c052f5-f0ff-42cc-9422-6c158fefe05d,,1500,250,stim,,"<div class = centerbox><div class = stroop-stim style = ""color:red"">BLUE</div></div>","66,71,82",1500,test,,,incongruent,TRUE,82,,,500,red,blue,-1,-1,poldrack-single-stim,569,653134,0.0-568.0,82c052f5-f0ff-42cc-9422-6c158fefe05d,,500,500,fixation,,<div class = centerbox><div class = fixation>+</div></div>,none,500,test,,,,,,,,,,,656,71,poldrack-categorize,570,655647,0.0-569.0,82c052f5-f0ff-42cc-9422-6c158fefe05d,,1500,250,stim,,"<div class = centerbox><div class = stroop-stim style = ""color:green"">GREEN</div></div>","66,71,82",1500,test,,,congruent,TRUE,71,,,500,green,green,-1,-1,poldrack-single-stim,571,656408,0.0-570.0,82c052f5-f0ff-42cc-9422-6c158fefe05d,,500,500,fixation,,<div class = centerbox><div class = fixation>+</div></div>,none,500,test,,,,,,,,,,,847,82,poldrack-categorize,572,658920,0.0-571.0,82c052f5-f0ff-42cc-9422-6c158fefe05d,,1500,250,stim,,"<div class = centerbox><div class = stroop-stim style = ""color:red"">GREEN</div></div>","66,71,82",1500,test,,,incongruent,TRUE,82,,,500,red,green,-1,-1,poldrack-single-stim,573,659676,0.0-572.0,82c052f5-f0ff-42cc-9422-6c158fefe05d,,500,500,fixation,,<div class = centerbox><div class = fixation>+</div></div>,none,500,test,,,,,,,,,,,715,71,poldrack-categorize,574,662189,0.0-573.0,82c052f5-f0ff-42cc-9422-6c158fefe05d,,1500,250,stim,,"<div class = centerbox><div class = stroop-stim style = ""color:green"">GREEN</div></div>","66,71,82",1500,test,,,congruent,TRUE,71,,,500,green,green,-1,-1,poldrack-single-stim,575,662949,0.0-574.0,82c052f5-f0ff-42cc-9422-6c158fefe05d,,500,500,fixation,,<div class = centerbox><div class = fixation>+</div></div>,none,500,test,,,,,,,,,,,672,66,poldrack-categorize,576,665463,0.0-575.0,82c052f5-f0ff-42cc-9422-6c158fefe05d,,1500,250,stim,,"<div class = centerbox><div class = stroop-stim style = ""color:blue"">RED</div></div>","66,71,82",1500,test,,,incongruent,TRUE,66,,,500,blue,red,-1,-1,poldrack-single-stim,577,666223,0.0-576.0,82c052f5-f0ff-42cc-9422-6c158fefe05d,,500,500,fixation,,<div class = centerbox><div class = fixation>+</div></div>,none,500,test,,,,,,,,,,,646,66,poldrack-categorize,578,668736,0.0-577.0,82c052f5-f0ff-42cc-9422-6c158fefe05d,,1500,250,stim,,"<div class = centerbox><div class = stroop-stim style = ""color:blue"">BLUE</div></div>","66,71,82",1500,test,,,congruent,TRUE,66,,,500,blue,blue,-1,-1,poldrack-single-stim,579,669497,0.0-578.0,82c052f5-f0ff-42cc-9422-6c158fefe05d,,500,500,fixation,,<div class = centerbox><div class = fixation>+</div></div>,none,500,test,,,,,,,,,,,628,82,poldrack-categorize,580,672010,0.0-579.0,82c052f5-f0ff-42cc-9422-6c158fefe05d,,1500,250,stim,,"<div class = centerbox><div class = stroop-stim style = ""color:red"">RED</div></div>","66,71,82",1500,test,,,congruent,TRUE,82,,,500,red,red,-1,-1,poldrack-single-stim,581,672771,0.0-580.0,82c052f5-f0ff-42cc-9422-6c158fefe05d,,500,500,fixation,,<div class = centerbox><div class = fixation>+</div></div>,none,500,test,,,,,,,,,,,699,66,poldrack-categorize,582,675284,0.0-581.0,82c052f5-f0ff-42cc-9422-6c158fefe05d,,1500,250,stim,,"<div class = centerbox><div class = stroop-stim style = ""color:blue"">BLUE</div></div>","66,71,82",1500,test,,,congruent,TRUE,66,,,500,blue,blue,-1,-1,poldrack-single-stim,583,676044,0.0-582.0,82c052f5-f0ff-42cc-9422-6c158fefe05d,,500,500,fixation,,<div class = centerbox><div class = fixation>+</div></div>,none,500,test,,,,,,,,,,,592,66,poldrack-categorize,584,678553,0.0-583.0,82c052f5-f0ff-42cc-9422-6c158fefe05d,,1500,250,stim,,"<div class = centerbox><div class = stroop-stim style = ""color:blue"">BLUE</div></div>","66,71,82",1500,test,,,congruent,TRUE,66,,,500,blue,blue,-1,-1,poldrack-single-stim,585,679312,0.0-584.0,82c052f5-f0ff-42cc-9422-6c158fefe05d,,500,500,fixation,,<div class = centerbox><div class = fixation>+</div></div>,none,500,test,,,,,,,,,,,924,82,poldrack-categorize,586,681826,0.0-585.0,82c052f5-f0ff-42cc-9422-6c158fefe05d,,1500,250,stim,,"<div class = centerbox><div class = stroop-stim style = ""color:red"">BLUE</div></div>","66,71,82",1500,test,,,incongruent,TRUE,82,,,500,red,blue,-1,-1,poldrack-single-stim,587,682586,0.0-586.0,82c052f5-f0ff-42cc-9422-6c158fefe05d,,500,500,fixation,,<div class = centerbox><div class = fixation>+</div></div>,none,500,test,,,,,,,,,,,-1,-1,poldrack-categorize,588,685099,0.0-587.0,82c052f5-f0ff-42cc-9422-6c158fefe05d,,1500,250,stim,,"<div class = centerbox><div class = stroop-stim style = ""color:red"">BLUE</div></div>","66,71,82",1500,test,,,incongruent,FALSE,82,,,500,red,blue,-1,-1,poldrack-single-stim,589,685860,0.0-588.0,82c052f5-f0ff-42cc-9422-6c158fefe05d,,500,500,fixation,,<div class = centerbox><div class = fixation>+</div></div>,none,500,test,,,,,,,,,,,648,82,poldrack-categorize,590,688373,0.0-589.0,82c052f5-f0ff-42cc-9422-6c158fefe05d,,1500,250,stim,,"<div class = centerbox><div class = stroop-stim style = ""color:red"">GREEN</div></div>","66,71,82",1500,test,,,incongruent,TRUE,82,,,500,red,green,-1,-1,poldrack-single-stim,591,689134,0.0-590.0,82c052f5-f0ff-42cc-9422-6c158fefe05d,,500,500,fixation,,<div class = centerbox><div class = fixation>+</div></div>,none,500,test,,,,,,,,,,,534,82,poldrack-categorize,592,691647,0.0-591.0,82c052f5-f0ff-42cc-9422-6c158fefe05d,,1500,250,stim,,"<div class = centerbox><div class = stroop-stim style = ""color:red"">GREEN</div></div>","66,71,82",1500,test,,,incongruent,TRUE,82,,,500,red,green,-1,-1,poldrack-single-stim,593,692407,0.0-592.0,82c052f5-f0ff-42cc-9422-6c158fefe05d,,500,500,fixation,,<div class = centerbox><div class = fixation>+</div></div>,none,500,test,,,,,,,,,,,987,66,poldrack-categorize,594,694920,0.0-593.0,82c052f5-f0ff-42cc-9422-6c158fefe05d,,1500,250,stim,,"<div class = centerbox><div class = stroop-stim style = ""color:blue"">GREEN</div></div>","66,71,82",1500,test,,,incongruent,TRUE,66,,,500,blue,green,-1,-1,poldrack-single-stim,595,695681,0.0-594.0,82c052f5-f0ff-42cc-9422-6c158fefe05d,,500,500,fixation,,<div class = centerbox><div class = fixation>+</div></div>,none,500,test,,,,,,,,,,,714,66,poldrack-categorize,596,698194,0.0-595.0,82c052f5-f0ff-42cc-9422-6c158fefe05d,,1500,250,stim,,"<div class = centerbox><div class = stroop-stim style = ""color:blue"">RED</div></div>","66,71,82",1500,test,,,incongruent,TRUE,66,,,500,blue,red,-1,-1,poldrack-single-stim,597,698955,0.0-596.0,82c052f5-f0ff-42cc-9422-6c158fefe05d,,500,500,fixation,,<div class = centerbox><div class = fixation>+</div></div>,none,500,test,,,,,,,,,,,394,82,poldrack-categorize,598,701468,0.0-597.0,82c052f5-f0ff-42cc-9422-6c158fefe05d,,1500,250,stim,,"<div class = centerbox><div class = stroop-stim style = ""color:red"">BLUE</div></div>","66,71,82",1500,test,,,incongruent,TRUE,82,,,500,red,blue,-1,-1,poldrack-single-stim,599,702228,0.0-598.0,82c052f5-f0ff-42cc-9422-6c158fefe05d,,500,500,fixation,,<div class = centerbox><div class = fixation>+</div></div>,none,500,test,,,,,,,,,,,494,71,poldrack-categorize,600,704742,0.0-599.0,82c052f5-f0ff-42cc-9422-6c158fefe05d,,1500,250,stim,,"<div class = centerbox><div class = stroop-stim style = ""color:green"">BLUE</div></div>","66,71,82",1500,test,,,incongruent,TRUE,71,,,500,green,blue,-1,-1,poldrack-single-stim,601,705502,0.0-600.0,82c052f5-f0ff-42cc-9422-6c158fefe05d,,500,500,fixation,,<div class = centerbox><div class = fixation>+</div></div>,none,500,test,,,,,,,,,,,492,82,poldrack-categorize,602,708015,0.0-601.0,82c052f5-f0ff-42cc-9422-6c158fefe05d,,1500,250,stim,,"<div class = centerbox><div class = stroop-stim style = ""color:red"">RED</div></div>","66,71,82",1500,test,,,congruent,TRUE,82,,,500,red,red,-1,-1,poldrack-single-stim,603,708776,0.0-602.0,82c052f5-f0ff-42cc-9422-6c158fefe05d,,500,500,fixation,,<div class = centerbox><div class = fixation>+</div></div>,none,500,test,,,,,,,,,,,723,71,poldrack-categorize,604,711289,0.0-603.0,82c052f5-f0ff-42cc-9422-6c158fefe05d,,1500,250,stim,,"<div class = centerbox><div class = stroop-stim style = ""color:green"">BLUE</div></div>","66,71,82",1500,test,,,incongruent,TRUE,71,,,500,green,blue,-1,-1,poldrack-single-stim,605,712050,0.0-604.0,82c052f5-f0ff-42cc-9422-6c158fefe05d,,500,500,fixation,,<div class = centerbox><div class = fixation>+</div></div>,none,500,test,,,,,,,,,,,504,82,poldrack-categorize,606,714563,0.0-605.0,82c052f5-f0ff-42cc-9422-6c158fefe05d,,1500,250,stim,,"<div class = centerbox><div class = stroop-stim style = ""color:red"">RED</div></div>","66,71,82",1500,test,,,congruent,TRUE,82,,,500,red,red,-1,-1,poldrack-single-stim,607,715324,0.0-606.0,82c052f5-f0ff-42cc-9422-6c158fefe05d,,500,500,fixation,,<div class = centerbox><div class = fixation>+</div></div>,none,500,test,,,,,,,,,,,397,66,poldrack-categorize,608,717836,0.0-607.0,82c052f5-f0ff-42cc-9422-6c158fefe05d,,1500,250,stim,,"<div class = centerbox><div class = stroop-stim style = ""color:blue"">BLUE</div></div>","66,71,82",1500,test,,,congruent,TRUE,66,,,500,blue,blue,-1,-1,poldrack-single-stim,609,718597,0.0-608.0,82c052f5-f0ff-42cc-9422-6c158fefe05d,,500,500,fixation,,<div class = centerbox><div class = fixation>+</div></div>,none,500,test,,,,,,,,,,,796,71,poldrack-categorize,610,721110,0.0-609.0,82c052f5-f0ff-42cc-9422-6c158fefe05d,,1500,250,stim,,"<div class = centerbox><div class = stroop-stim style = ""color:green"">RED</div></div>","66,71,82",1500,test,,,incongruent,TRUE,71,,,500,green,red,-1,-1,poldrack-single-stim,611,721871,0.0-610.0,82c052f5-f0ff-42cc-9422-6c158fefe05d,,500,500,fixation,,<div class = centerbox><div class = fixation>+</div></div>,none,500,test,,,,,,,,,,,506,71,poldrack-categorize,612,724384,0.0-611.0,82c052f5-f0ff-42cc-9422-6c158fefe05d,,1500,250,stim,,"<div class = centerbox><div class = stroop-stim style = ""color:green"">RED</div></div>","66,71,82",1500,test,,,incongruent,TRUE,71,,,500,green,red,-1,-1,poldrack-single-stim,613,725145,0.0-612.0,82c052f5-f0ff-42cc-9422-6c158fefe05d,,500,500,fixation,,<div class = centerbox><div class = fixation>+</div></div>,none,500,test,,,,,,,,,,,560,71,poldrack-categorize,614,727658,0.0-613.0,82c052f5-f0ff-42cc-9422-6c158fefe05d,,1500,250,stim,,"<div class = centerbox><div class = stroop-stim style = ""color:green"">GREEN</div></div>","66,71,82",1500,test,,,congruent,TRUE,71,,,500,green,green,-1,-1,poldrack-single-stim,615,728418,0.0-614.0,82c052f5-f0ff-42cc-9422-6c158fefe05d,,500,500,fixation,,<div class = centerbox><div class = fixation>+</div></div>,none,500,test,,,,,,,,,,,471,71,poldrack-categorize,616,730932,0.0-615.0,82c052f5-f0ff-42cc-9422-6c158fefe05d,,1500,250,stim,,"<div class = centerbox><div class = stroop-stim style = ""color:green"">RED</div></div>","66,71,82",1500,test,,,incongruent,TRUE,71,,,500,green,red,-1,-1,poldrack-single-stim,617,731692,0.0-616.0,82c052f5-f0ff-42cc-9422-6c158fefe05d,,500,500,fixation,,<div class = centerbox><div class = fixation>+</div></div>,none,500,test,,,,,,,,,,,700,66,poldrack-categorize,618,734199,0.0-617.0,82c052f5-f0ff-42cc-9422-6c158fefe05d,,1500,250,stim,,"<div class = centerbox><div class = stroop-stim style = ""color:blue"">BLUE</div></div>","66,71,82",1500,test,,,congruent,TRUE,66,,,500,blue,blue,-1,-1,poldrack-single-stim,619,734960,0.0-618.0,82c052f5-f0ff-42cc-9422-6c158fefe05d,,500,500,fixation,,<div class = centerbox><div class = fixation>+</div></div>,none,500,test,,,,,,,,,,,519,71,poldrack-categorize,620,737473,0.0-619.0,82c052f5-f0ff-42cc-9422-6c158fefe05d,,1500,250,stim,,"<div class = centerbox><div class = stroop-stim style = ""color:green"">GREEN</div></div>","66,71,82",1500,test,,,congruent,TRUE,71,,,500,green,green,-1,-1,poldrack-single-stim,621,738234,0.0-620.0,82c052f5-f0ff-42cc-9422-6c158fefe05d,,500,500,fixation,,<div class = centerbox><div class = fixation>+</div></div>,none,500,test,,,,,,,,,,,1022,66,poldrack-categorize,622,740747,0.0-621.0,82c052f5-f0ff-42cc-9422-6c158fefe05d,,1500,250,stim,,"<div class = centerbox><div class = stroop-stim style = ""color:blue"">RED</div></div>","66,71,82",1500,test,,,incongruent,TRUE,66,,,500,blue,red,-1,-1,poldrack-single-stim,623,741502,0.0-622.0,82c052f5-f0ff-42cc-9422-6c158fefe05d,,500,500,fixation,,<div class = centerbox><div class = fixation>+</div></div>,none,500,test,,,,,,,,,,,721,82,poldrack-categorize,624,744015,0.0-623.0,82c052f5-f0ff-42cc-9422-6c158fefe05d,,1500,250,stim,,"<div class = centerbox><div class = stroop-stim style = ""color:red"">RED</div></div>","66,71,82",1500,test,,,congruent,TRUE,82,,,500,red,red,-1,-1,poldrack-single-stim,625,744775,0.0-624.0,82c052f5-f0ff-42cc-9422-6c158fefe05d,,500,500,fixation,,<div class = centerbox><div class = fixation>+</div></div>,none,500,test,,,,,,,,,,,784,82,poldrack-categorize,626,747288,0.0-625.0,82c052f5-f0ff-42cc-9422-6c158fefe05d,,1500,250,stim,,"<div class = centerbox><div class = stroop-stim style = ""color:red"">GREEN</div></div>","66,71,82",1500,test,,,incongruent,TRUE,82,,,500,red,green,-1,-1,poldrack-single-stim,627,748049,0.0-626.0,82c052f5-f0ff-42cc-9422-6c158fefe05d,,500,500,fixation,,<div class = centerbox><div class = fixation>+</div></div>,none,500,test,,,,,,,,,,,429,71,poldrack-categorize,628,750562,0.0-627.0,82c052f5-f0ff-42cc-9422-6c158fefe05d,,1500,250,stim,,"<div class = centerbox><div class = stroop-stim style = ""color:green"">GREEN</div></div>","66,71,82",1500,test,,,congruent,TRUE,71,,,500,green,green,-1,-1,poldrack-single-stim,629,751323,0.0-628.0,82c052f5-f0ff-42cc-9422-6c158fefe05d,,500,500,fixation,,<div class = centerbox><div class = fixation>+</div></div>,none,500,test,,,,,,,,,,,396,66,poldrack-categorize,630,753836,0.0-629.0,82c052f5-f0ff-42cc-9422-6c158fefe05d,,1500,250,stim,,"<div class = centerbox><div class = stroop-stim style = ""color:blue"">GREEN</div></div>","66,71,82",1500,test,,,incongruent,TRUE,66,,,500,blue,green,-1,-1,poldrack-single-stim,631,754597,0.0-630.0,82c052f5-f0ff-42cc-9422-6c158fefe05d,,500,500,fixation,,<div class = centerbox><div class = fixation>+</div></div>,none,500,test,,,,,,,,,,,657,66,poldrack-categorize,632,757110,0.0-631.0,82c052f5-f0ff-42cc-9422-6c158fefe05d,,1500,250,stim,,"<div class = centerbox><div class = stroop-stim style = ""color:green"">BLUE</div></div>","66,71,82",1500,test,,,incongruent,FALSE,71,,,500,green,blue,38592,,survey-text,633,795958,0.0-633.0,82c052f5-f0ff-42cc-9422-6c158fefe05d,,,,post task questions,,,,,,,,,,,"{""Q0"":""Push r, g, or b for whatever color ink was presented for the word."",""Q1"":""""}",,,,,1587,13,poldrack-text,634,798547,0.0-634.0,82c052f5-f0ff-42cc-9422-6c158fefe05d,<div class = centerbox><p class = center-block-text>Thanks for completing this task!</p><p class = center-block-text>Press <strong>enter</strong> to continue.</p></div>,1587,0,end,,,,,,,,,,,,stroop,,,,TRUE8214,13,text,635,806803,0.0-635.0,82c052f5-f0ff-42cc-9422-6c158fefe05d,,,,,,,,,,,,,,,,,,,,