rt,key_press,trial_type,trial_index,time_elapsed,internal_node_id,subject,text,block_duration,timing_post_trial,trial_id,view_history,stimulus,possible_responses,stim_duration,exp_stage,stim_place,stim_id,condition,correct,correct_response,responses,exp_id,feedback_duration,stim_color,stim_word,credit_var5874,13,text,0,5877,0.0-0.0,7f1344b7-7711-4b51-b553-adb7d0ee8fc1,,,,,,,,,,,,,,,,,,,,1911,13,poldrack-text,389,334100,0.0-388.0-0.0,7f1344b7-7711-4b51-b553-adb7d0ee8fc1,<div class = centerbox><p class = center-block-text>Done with instructions. Press <strong>enter</strong> to continue.</p></div>,1911,0,instruction,,,,,,,,,,,,,,,,26362,,poldrack-instructions,390,360462,0.0-388.0-1.0,7f1344b7-7711-4b51-b553-adb7d0ee8fc1,,,,instruction,"[{""page_index"":0,""viewing_time"":26361}]",,,,,,,,,,,,,,,11411,13,poldrack-text,391,372881,0.0-389.0,7f1344b7-7711-4b51-b553-adb7d0ee8fc1,"<div class = centerbox><p class = block-text>We will start with a few practice trials. Remember, press the key corresponding to the <strong>ink</strong> color of the word: ""r"" for words colored red, ""b"" for words colored blue, and ""g"" for words colored green.</p><p class = block-text>Press <strong>enter</strong> to begin practice.</p></div>",11411,1000,practice_intro,,,,,,,,,,,,,,,,-1,-1,poldrack-single-stim,392,374389,0.0-390.0,7f1344b7-7711-4b51-b553-adb7d0ee8fc1,,500,500,fixation,,<div class = centerbox><div class = fixation>+</div></div>,none,500,practice,,,,,,,,,,,892,66,poldrack-categorize,393,376899,0.0-391.0,7f1344b7-7711-4b51-b553-adb7d0ee8fc1,,1500,250,stim,,"<div class = centerbox><div class = stroop-stim style = ""color:blue"">BLUE</div></div>","66,71,82",1500,practice,,,congruent,TRUE,66,,,500,blue,blue,-1,-1,poldrack-single-stim,394,377657,0.0-392.0,7f1344b7-7711-4b51-b553-adb7d0ee8fc1,,500,500,fixation,,<div class = centerbox><div class = fixation>+</div></div>,none,500,practice,,,,,,,,,,,695,66,poldrack-categorize,395,380170,0.0-393.0,7f1344b7-7711-4b51-b553-adb7d0ee8fc1,,1500,250,stim,,"<div class = centerbox><div class = stroop-stim style = ""color:blue"">BLUE</div></div>","66,71,82",1500,practice,,,congruent,TRUE,66,,,500,blue,blue,-1,-1,poldrack-single-stim,396,380930,0.0-394.0,7f1344b7-7711-4b51-b553-adb7d0ee8fc1,,500,500,fixation,,<div class = centerbox><div class = fixation>+</div></div>,none,500,practice,,,,,,,,,,,942,66,poldrack-categorize,397,383444,0.0-395.0,7f1344b7-7711-4b51-b553-adb7d0ee8fc1,,1500,250,stim,,"<div class = centerbox><div class = stroop-stim style = ""color:blue"">GREEN</div></div>","66,71,82",1500,practice,,,incongruent,TRUE,66,,,500,blue,green,-1,-1,poldrack-single-stim,398,384204,0.0-396.0,7f1344b7-7711-4b51-b553-adb7d0ee8fc1,,500,500,fixation,,<div class = centerbox><div class = fixation>+</div></div>,none,500,practice,,,,,,,,,,,515,66,poldrack-categorize,399,386717,0.0-397.0,7f1344b7-7711-4b51-b553-adb7d0ee8fc1,,1500,250,stim,,"<div class = centerbox><div class = stroop-stim style = ""color:blue"">GREEN</div></div>","66,71,82",1500,practice,,,incongruent,TRUE,66,,,500,blue,green,-1,-1,poldrack-single-stim,400,387478,0.0-398.0,7f1344b7-7711-4b51-b553-adb7d0ee8fc1,,500,500,fixation,,<div class = centerbox><div class = fixation>+</div></div>,none,500,practice,,,,,,,,,,,473,66,poldrack-categorize,401,389991,0.0-399.0,7f1344b7-7711-4b51-b553-adb7d0ee8fc1,,1500,250,stim,,"<div class = centerbox><div class = stroop-stim style = ""color:blue"">BLUE</div></div>","66,71,82",1500,practice,,,congruent,TRUE,66,,,500,blue,blue,-1,-1,poldrack-single-stim,402,390752,0.0-400.0,7f1344b7-7711-4b51-b553-adb7d0ee8fc1,,500,500,fixation,,<div class = centerbox><div class = fixation>+</div></div>,none,500,practice,,,,,,,,,,,599,71,poldrack-categorize,403,393265,0.0-401.0,7f1344b7-7711-4b51-b553-adb7d0ee8fc1,,1500,250,stim,,"<div class = centerbox><div class = stroop-stim style = ""color:green"">BLUE</div></div>","66,71,82",1500,practice,,,incongruent,TRUE,71,,,500,green,blue,-1,-1,poldrack-single-stim,404,394026,0.0-402.0,7f1344b7-7711-4b51-b553-adb7d0ee8fc1,,500,500,fixation,,<div class = centerbox><div class = fixation>+</div></div>,none,500,practice,,,,,,,,,,,560,71,poldrack-categorize,405,396533,0.0-403.0,7f1344b7-7711-4b51-b553-adb7d0ee8fc1,,1500,250,stim,,"<div class = centerbox><div class = stroop-stim style = ""color:green"">GREEN</div></div>","66,71,82",1500,practice,,,congruent,TRUE,71,,,500,green,green,-1,-1,poldrack-single-stim,406,397294,0.0-404.0,7f1344b7-7711-4b51-b553-adb7d0ee8fc1,,500,500,fixation,,<div class = centerbox><div class = fixation>+</div></div>,none,500,practice,,,,,,,,,,,826,71,poldrack-categorize,407,399804,0.0-405.0,7f1344b7-7711-4b51-b553-adb7d0ee8fc1,,1500,250,stim,,"<div class = centerbox><div class = stroop-stim style = ""color:green"">RED</div></div>","66,71,82",1500,practice,,,incongruent,TRUE,71,,,500,green,red,-1,-1,poldrack-single-stim,408,400562,0.0-406.0,7f1344b7-7711-4b51-b553-adb7d0ee8fc1,,500,500,fixation,,<div class = centerbox><div class = fixation>+</div></div>,none,500,practice,,,,,,,,,,,573,82,poldrack-categorize,409,403075,0.0-407.0,7f1344b7-7711-4b51-b553-adb7d0ee8fc1,,1500,250,stim,,"<div class = centerbox><div class = stroop-stim style = ""color:red"">RED</div></div>","66,71,82",1500,practice,,,congruent,TRUE,82,,,500,red,red,-1,-1,poldrack-single-stim,410,403831,0.0-408.0,7f1344b7-7711-4b51-b553-adb7d0ee8fc1,,500,500,fixation,,<div class = centerbox><div class = fixation>+</div></div>,none,500,practice,,,,,,,,,,,718,82,poldrack-categorize,411,406343,0.0-409.0,7f1344b7-7711-4b51-b553-adb7d0ee8fc1,,1500,250,stim,,"<div class = centerbox><div class = stroop-stim style = ""color:red"">BLUE</div></div>","66,71,82",1500,practice,,,incongruent,TRUE,82,,,500,red,blue,-1,-1,poldrack-single-stim,412,407104,0.0-410.0,7f1344b7-7711-4b51-b553-adb7d0ee8fc1,,500,500,fixation,,<div class = centerbox><div class = fixation>+</div></div>,none,500,practice,,,,,,,,,,,822,82,poldrack-categorize,413,409617,0.0-411.0,7f1344b7-7711-4b51-b553-adb7d0ee8fc1,,1500,250,stim,,"<div class = centerbox><div class = stroop-stim style = ""color:red"">BLUE</div></div>","66,71,82",1500,practice,,,incongruent,TRUE,82,,,500,red,blue,-1,-1,poldrack-single-stim,414,410377,0.0-412.0,7f1344b7-7711-4b51-b553-adb7d0ee8fc1,,500,500,fixation,,<div class = centerbox><div class = fixation>+</div></div>,none,500,practice,,,,,,,,,,,564,71,poldrack-categorize,415,412891,0.0-413.0,7f1344b7-7711-4b51-b553-adb7d0ee8fc1,,1500,250,stim,,"<div class = centerbox><div class = stroop-stim style = ""color:green"">GREEN</div></div>","66,71,82",1500,practice,,,congruent,TRUE,71,,,500,green,green,-1,-1,poldrack-single-stim,416,413651,0.0-414.0,7f1344b7-7711-4b51-b553-adb7d0ee8fc1,,500,500,fixation,,<div class = centerbox><div class = fixation>+</div></div>,none,500,practice,,,,,,,,,,,858,71,poldrack-categorize,417,416164,0.0-415.0,7f1344b7-7711-4b51-b553-adb7d0ee8fc1,,1500,250,stim,,"<div class = centerbox><div class = stroop-stim style = ""color:green"">RED</div></div>","66,71,82",1500,practice,,,incongruent,TRUE,71,,,500,green,red,-1,-1,poldrack-single-stim,418,416923,0.0-416.0,7f1344b7-7711-4b51-b553-adb7d0ee8fc1,,500,500,fixation,,<div class = centerbox><div class = fixation>+</div></div>,none,500,practice,,,,,,,,,,,702,82,poldrack-categorize,419,419432,0.0-417.0,7f1344b7-7711-4b51-b553-adb7d0ee8fc1,,1500,250,stim,,"<div class = centerbox><div class = stroop-stim style = ""color:red"">GREEN</div></div>","66,71,82",1500,practice,,,incongruent,TRUE,82,,,500,red,green,-1,-1,poldrack-single-stim,420,420193,0.0-418.0,7f1344b7-7711-4b51-b553-adb7d0ee8fc1,,500,500,fixation,,<div class = centerbox><div class = fixation>+</div></div>,none,500,practice,,,,,,,,,,,836,66,poldrack-categorize,421,422706,0.0-419.0,7f1344b7-7711-4b51-b553-adb7d0ee8fc1,,1500,250,stim,,"<div class = centerbox><div class = stroop-stim style = ""color:blue"">RED</div></div>","66,71,82",1500,practice,,,incongruent,TRUE,66,,,500,blue,red,-1,-1,poldrack-single-stim,422,423467,0.0-420.0,7f1344b7-7711-4b51-b553-adb7d0ee8fc1,,500,500,fixation,,<div class = centerbox><div class = fixation>+</div></div>,none,500,practice,,,,,,,,,,,401,71,poldrack-categorize,423,425980,0.0-421.0,7f1344b7-7711-4b51-b553-adb7d0ee8fc1,,1500,250,stim,,"<div class = centerbox><div class = stroop-stim style = ""color:green"">GREEN</div></div>","66,71,82",1500,practice,,,congruent,TRUE,71,,,500,green,green,-1,-1,poldrack-single-stim,424,426741,0.0-422.0,7f1344b7-7711-4b51-b553-adb7d0ee8fc1,,500,500,fixation,,<div class = centerbox><div class = fixation>+</div></div>,none,500,practice,,,,,,,,,,,680,71,poldrack-categorize,425,429254,0.0-423.0,7f1344b7-7711-4b51-b553-adb7d0ee8fc1,,1500,250,stim,,"<div class = centerbox><div class = stroop-stim style = ""color:green"">BLUE</div></div>","66,71,82",1500,practice,,,incongruent,TRUE,71,,,500,green,blue,-1,-1,poldrack-single-stim,426,430009,0.0-424.0,7f1344b7-7711-4b51-b553-adb7d0ee8fc1,,500,500,fixation,,<div class = centerbox><div class = fixation>+</div></div>,none,500,practice,,,,,,,,,,,484,82,poldrack-categorize,427,432522,0.0-425.0,7f1344b7-7711-4b51-b553-adb7d0ee8fc1,,1500,250,stim,,"<div class = centerbox><div class = stroop-stim style = ""color:red"">RED</div></div>","66,71,82",1500,practice,,,congruent,TRUE,82,,,500,red,red,-1,-1,poldrack-single-stim,428,433282,0.0-426.0,7f1344b7-7711-4b51-b553-adb7d0ee8fc1,,500,500,fixation,,<div class = centerbox><div class = fixation>+</div></div>,none,500,practice,,,,,,,,,,,994,66,poldrack-categorize,429,435796,0.0-427.0,7f1344b7-7711-4b51-b553-adb7d0ee8fc1,,1500,250,stim,,"<div class = centerbox><div class = stroop-stim style = ""color:blue"">RED</div></div>","66,71,82",1500,practice,,,incongruent,TRUE,66,,,500,blue,red,-1,-1,poldrack-single-stim,430,436556,0.0-428.0,7f1344b7-7711-4b51-b553-adb7d0ee8fc1,,500,500,fixation,,<div class = centerbox><div class = fixation>+</div></div>,none,500,practice,,,,,,,,,,,520,82,poldrack-categorize,431,439069,0.0-429.0,7f1344b7-7711-4b51-b553-adb7d0ee8fc1,,1500,250,stim,,"<div class = centerbox><div class = stroop-stim style = ""color:red"">RED</div></div>","66,71,82",1500,practice,,,congruent,TRUE,82,,,500,red,red,-1,-1,poldrack-single-stim,432,439830,0.0-430.0,7f1344b7-7711-4b51-b553-adb7d0ee8fc1,,500,500,fixation,,<div class = centerbox><div class = fixation>+</div></div>,none,500,practice,,,,,,,,,,,424,71,poldrack-categorize,433,442343,0.0-431.0,7f1344b7-7711-4b51-b553-adb7d0ee8fc1,,1500,250,stim,,"<div class = centerbox><div class = stroop-stim style = ""color:green"">GREEN</div></div>","66,71,82",1500,practice,,,congruent,TRUE,71,,,500,green,green,-1,-1,poldrack-single-stim,434,443104,0.0-432.0,7f1344b7-7711-4b51-b553-adb7d0ee8fc1,,500,500,fixation,,<div class = centerbox><div class = fixation>+</div></div>,none,500,practice,,,,,,,,,,,612,82,poldrack-categorize,435,445615,0.0-433.0,7f1344b7-7711-4b51-b553-adb7d0ee8fc1,,1500,250,stim,,"<div class = centerbox><div class = stroop-stim style = ""color:red"">GREEN</div></div>","66,71,82",1500,practice,,,incongruent,TRUE,82,,,500,red,green,-1,-1,poldrack-single-stim,436,446372,0.0-434.0,7f1344b7-7711-4b51-b553-adb7d0ee8fc1,,500,500,fixation,,<div class = centerbox><div class = fixation>+</div></div>,none,500,practice,,,,,,,,,,,697,66,poldrack-categorize,437,448885,0.0-435.0,7f1344b7-7711-4b51-b553-adb7d0ee8fc1,,1500,250,stim,,"<div class = centerbox><div class = stroop-stim style = ""color:blue"">BLUE</div></div>","66,71,82",1500,practice,,,congruent,TRUE,66,,,500,blue,blue,-1,-1,poldrack-single-stim,438,449646,0.0-436.0,7f1344b7-7711-4b51-b553-adb7d0ee8fc1,,500,500,fixation,,<div class = centerbox><div class = fixation>+</div></div>,none,500,practice,,,,,,,,,,,407,82,poldrack-categorize,439,452159,0.0-437.0,7f1344b7-7711-4b51-b553-adb7d0ee8fc1,,1500,250,stim,,"<div class = centerbox><div class = stroop-stim style = ""color:red"">RED</div></div>","66,71,82",1500,practice,,,congruent,TRUE,82,,,500,red,red,1925,13,poldrack-text,440,454340,0.0-439.0,7f1344b7-7711-4b51-b553-adb7d0ee8fc1,<div class = centerbox><p class = center-block-text>We will now start the test. Respond exactly like you did during practice.</p><p class = center-block-text>Press <strong>enter</strong> to begin the test.</p></div>,1925,1000,test_intro,,,,,,,,,,,,,,,,-1,-1,poldrack-single-stim,441,455851,0.0-440.0,7f1344b7-7711-4b51-b553-adb7d0ee8fc1,,500,500,fixation,,<div class = centerbox><div class = fixation>+</div></div>,none,500,test,,,,,,,,,,,572,71,poldrack-categorize,442,458358,0.0-441.0,7f1344b7-7711-4b51-b553-adb7d0ee8fc1,,1500,250,stim,,"<div class = centerbox><div class = stroop-stim style = ""color:green"">GREEN</div></div>","66,71,82",1500,test,,,congruent,TRUE,71,,,500,green,green,-1,-1,poldrack-single-stim,443,459113,0.0-442.0,7f1344b7-7711-4b51-b553-adb7d0ee8fc1,,500,500,fixation,,<div class = centerbox><div class = fixation>+</div></div>,none,500,test,,,,,,,,,,,538,71,poldrack-categorize,444,461626,0.0-443.0,7f1344b7-7711-4b51-b553-adb7d0ee8fc1,,1500,250,stim,,"<div class = centerbox><div class = stroop-stim style = ""color:green"">RED</div></div>","66,71,82",1500,test,,,incongruent,TRUE,71,,,500,green,red,-1,-1,poldrack-single-stim,445,462384,0.0-444.0,7f1344b7-7711-4b51-b553-adb7d0ee8fc1,,500,500,fixation,,<div class = centerbox><div class = fixation>+</div></div>,none,500,test,,,,,,,,,,,635,71,poldrack-categorize,446,464894,0.0-445.0,7f1344b7-7711-4b51-b553-adb7d0ee8fc1,,1500,250,stim,,"<div class = centerbox><div class = stroop-stim style = ""color:green"">RED</div></div>","66,71,82",1500,test,,,incongruent,TRUE,71,,,500,green,red,-1,-1,poldrack-single-stim,447,465651,0.0-446.0,7f1344b7-7711-4b51-b553-adb7d0ee8fc1,,500,500,fixation,,<div class = centerbox><div class = fixation>+</div></div>,none,500,test,,,,,,,,,,,401,71,poldrack-categorize,448,468162,0.0-447.0,7f1344b7-7711-4b51-b553-adb7d0ee8fc1,,1500,250,stim,,"<div class = centerbox><div class = stroop-stim style = ""color:green"">GREEN</div></div>","66,71,82",1500,test,,,congruent,TRUE,71,,,500,green,green,-1,-1,poldrack-single-stim,449,468923,0.0-448.0,7f1344b7-7711-4b51-b553-adb7d0ee8fc1,,500,500,fixation,,<div class = centerbox><div class = fixation>+</div></div>,none,500,test,,,,,,,,,,,576,66,poldrack-categorize,450,471430,0.0-449.0,7f1344b7-7711-4b51-b553-adb7d0ee8fc1,,1500,250,stim,,"<div class = centerbox><div class = stroop-stim style = ""color:blue"">BLUE</div></div>","66,71,82",1500,test,,,congruent,TRUE,66,,,500,blue,blue,-1,-1,poldrack-single-stim,451,472191,0.0-450.0,7f1344b7-7711-4b51-b553-adb7d0ee8fc1,,500,500,fixation,,<div class = centerbox><div class = fixation>+</div></div>,none,500,test,,,,,,,,,,,410,71,poldrack-categorize,452,474704,0.0-451.0,7f1344b7-7711-4b51-b553-adb7d0ee8fc1,,1500,250,stim,,"<div class = centerbox><div class = stroop-stim style = ""color:green"">GREEN</div></div>","66,71,82",1500,test,,,congruent,TRUE,71,,,500,green,green,-1,-1,poldrack-single-stim,453,475461,0.0-452.0,7f1344b7-7711-4b51-b553-adb7d0ee8fc1,,500,500,fixation,,<div class = centerbox><div class = fixation>+</div></div>,none,500,test,,,,,,,,,,,613,66,poldrack-categorize,454,477972,0.0-453.0,7f1344b7-7711-4b51-b553-adb7d0ee8fc1,,1500,250,stim,,"<div class = centerbox><div class = stroop-stim style = ""color:blue"">BLUE</div></div>","66,71,82",1500,test,,,congruent,TRUE,66,,,500,blue,blue,-1,-1,poldrack-single-stim,455,478733,0.0-454.0,7f1344b7-7711-4b51-b553-adb7d0ee8fc1,,500,500,fixation,,<div class = centerbox><div class = fixation>+</div></div>,none,500,test,,,,,,,,,,,663,66,poldrack-categorize,456,481246,0.0-455.0,7f1344b7-7711-4b51-b553-adb7d0ee8fc1,,1500,250,stim,,"<div class = centerbox><div class = stroop-stim style = ""color:blue"">GREEN</div></div>","66,71,82",1500,test,,,incongruent,TRUE,66,,,500,blue,green,-1,-1,poldrack-single-stim,457,482006,0.0-456.0,7f1344b7-7711-4b51-b553-adb7d0ee8fc1,,500,500,fixation,,<div class = centerbox><div class = fixation>+</div></div>,none,500,test,,,,,,,,,,,941,71,poldrack-categorize,458,484520,0.0-457.0,7f1344b7-7711-4b51-b553-adb7d0ee8fc1,,1500,250,stim,,"<div class = centerbox><div class = stroop-stim style = ""color:green"">RED</div></div>","66,71,82",1500,test,,,incongruent,TRUE,71,,,500,green,red,-1,-1,poldrack-single-stim,459,485277,0.0-458.0,7f1344b7-7711-4b51-b553-adb7d0ee8fc1,,500,500,fixation,,<div class = centerbox><div class = fixation>+</div></div>,none,500,test,,,,,,,,,,,599,82,poldrack-categorize,460,487788,0.0-459.0,7f1344b7-7711-4b51-b553-adb7d0ee8fc1,,1500,250,stim,,"<div class = centerbox><div class = stroop-stim style = ""color:red"">RED</div></div>","66,71,82",1500,test,,,congruent,TRUE,82,,,500,red,red,-1,-1,poldrack-single-stim,461,488548,0.0-460.0,7f1344b7-7711-4b51-b553-adb7d0ee8fc1,,500,500,fixation,,<div class = centerbox><div class = fixation>+</div></div>,none,500,test,,,,,,,,,,,510,82,poldrack-categorize,462,491056,0.0-461.0,7f1344b7-7711-4b51-b553-adb7d0ee8fc1,,1500,250,stim,,"<div class = centerbox><div class = stroop-stim style = ""color:red"">RED</div></div>","66,71,82",1500,test,,,congruent,TRUE,82,,,500,red,red,-1,-1,poldrack-single-stim,463,491816,0.0-462.0,7f1344b7-7711-4b51-b553-adb7d0ee8fc1,,500,500,fixation,,<div class = centerbox><div class = fixation>+</div></div>,none,500,test,,,,,,,,,,,584,71,poldrack-categorize,464,494330,0.0-463.0,7f1344b7-7711-4b51-b553-adb7d0ee8fc1,,1500,250,stim,,"<div class = centerbox><div class = stroop-stim style = ""color:green"">GREEN</div></div>","66,71,82",1500,test,,,congruent,TRUE,71,,,500,green,green,-1,-1,poldrack-single-stim,465,495090,0.0-464.0,7f1344b7-7711-4b51-b553-adb7d0ee8fc1,,500,500,fixation,,<div class = centerbox><div class = fixation>+</div></div>,none,500,test,,,,,,,,,,,479,71,poldrack-categorize,466,497603,0.0-465.0,7f1344b7-7711-4b51-b553-adb7d0ee8fc1,,1500,250,stim,,"<div class = centerbox><div class = stroop-stim style = ""color:green"">GREEN</div></div>","66,71,82",1500,test,,,congruent,TRUE,71,,,500,green,green,-1,-1,poldrack-single-stim,467,498364,0.0-466.0,7f1344b7-7711-4b51-b553-adb7d0ee8fc1,,500,500,fixation,,<div class = centerbox><div class = fixation>+</div></div>,none,500,test,,,,,,,,,,,469,66,poldrack-categorize,468,500877,0.0-467.0,7f1344b7-7711-4b51-b553-adb7d0ee8fc1,,1500,250,stim,,"<div class = centerbox><div class = stroop-stim style = ""color:blue"">GREEN</div></div>","66,71,82",1500,test,,,incongruent,TRUE,66,,,500,blue,green,-1,-1,poldrack-single-stim,469,501638,0.0-468.0,7f1344b7-7711-4b51-b553-adb7d0ee8fc1,,500,500,fixation,,<div class = centerbox><div class = fixation>+</div></div>,none,500,test,,,,,,,,,,,452,66,poldrack-categorize,470,504151,0.0-469.0,7f1344b7-7711-4b51-b553-adb7d0ee8fc1,,1500,250,stim,,"<div class = centerbox><div class = stroop-stim style = ""color:blue"">BLUE</div></div>","66,71,82",1500,test,,,congruent,TRUE,66,,,500,blue,blue,-1,-1,poldrack-single-stim,471,504911,0.0-470.0,7f1344b7-7711-4b51-b553-adb7d0ee8fc1,,500,500,fixation,,<div class = centerbox><div class = fixation>+</div></div>,none,500,test,,,,,,,,,,,491,66,poldrack-categorize,472,507419,0.0-471.0,7f1344b7-7711-4b51-b553-adb7d0ee8fc1,,1500,250,stim,,"<div class = centerbox><div class = stroop-stim style = ""color:blue"">BLUE</div></div>","66,71,82",1500,test,,,congruent,TRUE,66,,,500,blue,blue,-1,-1,poldrack-single-stim,473,508179,0.0-472.0,7f1344b7-7711-4b51-b553-adb7d0ee8fc1,,500,500,fixation,,<div class = centerbox><div class = fixation>+</div></div>,none,500,test,,,,,,,,,,,519,66,poldrack-categorize,474,510693,0.0-473.0,7f1344b7-7711-4b51-b553-adb7d0ee8fc1,,1500,250,stim,,"<div class = centerbox><div class = stroop-stim style = ""color:blue"">RED</div></div>","66,71,82",1500,test,,,incongruent,TRUE,66,,,500,blue,red,-1,-1,poldrack-single-stim,475,511453,0.0-474.0,7f1344b7-7711-4b51-b553-adb7d0ee8fc1,,500,500,fixation,,<div class = centerbox><div class = fixation>+</div></div>,none,500,test,,,,,,,,,,,507,71,poldrack-categorize,476,513966,0.0-475.0,7f1344b7-7711-4b51-b553-adb7d0ee8fc1,,1500,250,stim,,"<div class = centerbox><div class = stroop-stim style = ""color:green"">BLUE</div></div>","66,71,82",1500,test,,,incongruent,TRUE,71,,,500,green,blue,-1,-1,poldrack-single-stim,477,514727,0.0-476.0,7f1344b7-7711-4b51-b553-adb7d0ee8fc1,,500,500,fixation,,<div class = centerbox><div class = fixation>+</div></div>,none,500,test,,,,,,,,,,,513,82,poldrack-categorize,478,517240,0.0-477.0,7f1344b7-7711-4b51-b553-adb7d0ee8fc1,,1500,250,stim,,"<div class = centerbox><div class = stroop-stim style = ""color:red"">BLUE</div></div>","66,71,82",1500,test,,,incongruent,TRUE,82,,,500,red,blue,-1,-1,poldrack-single-stim,479,518000,0.0-478.0,7f1344b7-7711-4b51-b553-adb7d0ee8fc1,,500,500,fixation,,<div class = centerbox><div class = fixation>+</div></div>,none,500,test,,,,,,,,,,,992,71,poldrack-categorize,480,520514,0.0-479.0,7f1344b7-7711-4b51-b553-adb7d0ee8fc1,,1500,250,stim,,"<div class = centerbox><div class = stroop-stim style = ""color:green"">GREEN</div></div>","66,71,82",1500,test,,,congruent,TRUE,71,,,500,green,green,-1,-1,poldrack-single-stim,481,521271,0.0-480.0,7f1344b7-7711-4b51-b553-adb7d0ee8fc1,,500,500,fixation,,<div class = centerbox><div class = fixation>+</div></div>,none,500,test,,,,,,,,,,,513,71,poldrack-categorize,482,523782,0.0-481.0,7f1344b7-7711-4b51-b553-adb7d0ee8fc1,,1500,250,stim,,"<div class = centerbox><div class = stroop-stim style = ""color:green"">GREEN</div></div>","66,71,82",1500,test,,,congruent,TRUE,71,,,500,green,green,-1,-1,poldrack-single-stim,483,524543,0.0-482.0,7f1344b7-7711-4b51-b553-adb7d0ee8fc1,,500,500,fixation,,<div class = centerbox><div class = fixation>+</div></div>,none,500,test,,,,,,,,,,,530,82,poldrack-categorize,484,527056,0.0-483.0,7f1344b7-7711-4b51-b553-adb7d0ee8fc1,,1500,250,stim,,"<div class = centerbox><div class = stroop-stim style = ""color:red"">GREEN</div></div>","66,71,82",1500,test,,,incongruent,TRUE,82,,,500,red,green,-1,-1,poldrack-single-stim,485,527816,0.0-484.0,7f1344b7-7711-4b51-b553-adb7d0ee8fc1,,500,500,fixation,,<div class = centerbox><div class = fixation>+</div></div>,none,500,test,,,,,,,,,,,984,71,poldrack-categorize,486,530325,0.0-485.0,7f1344b7-7711-4b51-b553-adb7d0ee8fc1,,1500,250,stim,,"<div class = centerbox><div class = stroop-stim style = ""color:green"">RED</div></div>","66,71,82",1500,test,,,incongruent,TRUE,71,,,500,green,red,-1,-1,poldrack-single-stim,487,531085,0.0-486.0,7f1344b7-7711-4b51-b553-adb7d0ee8fc1,,500,500,fixation,,<div class = centerbox><div class = fixation>+</div></div>,none,500,test,,,,,,,,,,,875,71,poldrack-categorize,488,533598,0.0-487.0,7f1344b7-7711-4b51-b553-adb7d0ee8fc1,,1500,250,stim,,"<div class = centerbox><div class = stroop-stim style = ""color:green"">RED</div></div>","66,71,82",1500,test,,,incongruent,TRUE,71,,,500,green,red,-1,-1,poldrack-single-stim,489,534358,0.0-488.0,7f1344b7-7711-4b51-b553-adb7d0ee8fc1,,500,500,fixation,,<div class = centerbox><div class = fixation>+</div></div>,none,500,test,,,,,,,,,,,506,82,poldrack-categorize,490,536871,0.0-489.0,7f1344b7-7711-4b51-b553-adb7d0ee8fc1,,1500,250,stim,,"<div class = centerbox><div class = stroop-stim style = ""color:red"">RED</div></div>","66,71,82",1500,test,,,congruent,TRUE,82,,,500,red,red,-1,-1,poldrack-single-stim,491,537632,0.0-490.0,7f1344b7-7711-4b51-b553-adb7d0ee8fc1,,500,500,fixation,,<div class = centerbox><div class = fixation>+</div></div>,none,500,test,,,,,,,,,,,487,71,poldrack-categorize,492,540145,0.0-491.0,7f1344b7-7711-4b51-b553-adb7d0ee8fc1,,1500,250,stim,,"<div class = centerbox><div class = stroop-stim style = ""color:green"">RED</div></div>","66,71,82",1500,test,,,incongruent,TRUE,71,,,500,green,red,-1,-1,poldrack-single-stim,493,540906,0.0-492.0,7f1344b7-7711-4b51-b553-adb7d0ee8fc1,,500,500,fixation,,<div class = centerbox><div class = fixation>+</div></div>,none,500,test,,,,,,,,,,,421,71,poldrack-categorize,494,543419,0.0-493.0,7f1344b7-7711-4b51-b553-adb7d0ee8fc1,,1500,250,stim,,"<div class = centerbox><div class = stroop-stim style = ""color:green"">BLUE</div></div>","66,71,82",1500,test,,,incongruent,TRUE,71,,,500,green,blue,-1,-1,poldrack-single-stim,495,544181,0.0-494.0,7f1344b7-7711-4b51-b553-adb7d0ee8fc1,,500,500,fixation,,<div class = centerbox><div class = fixation>+</div></div>,none,500,test,,,,,,,,,,,387,71,poldrack-categorize,496,546692,0.0-495.0,7f1344b7-7711-4b51-b553-adb7d0ee8fc1,,1500,250,stim,,"<div class = centerbox><div class = stroop-stim style = ""color:green"">GREEN</div></div>","66,71,82",1500,test,,,congruent,TRUE,71,,,500,green,green,-1,-1,poldrack-single-stim,497,547448,0.0-496.0,7f1344b7-7711-4b51-b553-adb7d0ee8fc1,,500,500,fixation,,<div class = centerbox><div class = fixation>+</div></div>,none,500,test,,,,,,,,,,,470,71,poldrack-categorize,498,549957,0.0-497.0,7f1344b7-7711-4b51-b553-adb7d0ee8fc1,,1500,250,stim,,"<div class = centerbox><div class = stroop-stim style = ""color:green"">GREEN</div></div>","66,71,82",1500,test,,,congruent,TRUE,71,,,500,green,green,-1,-1,poldrack-single-stim,499,550714,0.0-498.0,7f1344b7-7711-4b51-b553-adb7d0ee8fc1,,500,500,fixation,,<div class = centerbox><div class = fixation>+</div></div>,none,500,test,,,,,,,,,,,518,71,poldrack-categorize,500,553220,0.0-499.0,7f1344b7-7711-4b51-b553-adb7d0ee8fc1,,1500,250,stim,,"<div class = centerbox><div class = stroop-stim style = ""color:green"">BLUE</div></div>","66,71,82",1500,test,,,incongruent,TRUE,71,,,500,green,blue,-1,-1,poldrack-single-stim,501,553978,0.0-500.0,7f1344b7-7711-4b51-b553-adb7d0ee8fc1,,500,500,fixation,,<div class = centerbox><div class = fixation>+</div></div>,none,500,test,,,,,,,,,,,506,71,poldrack-categorize,502,556491,0.0-501.0,7f1344b7-7711-4b51-b553-adb7d0ee8fc1,,1500,250,stim,,"<div class = centerbox><div class = stroop-stim style = ""color:green"">BLUE</div></div>","66,71,82",1500,test,,,incongruent,TRUE,71,,,500,green,blue,-1,-1,poldrack-single-stim,503,557252,0.0-502.0,7f1344b7-7711-4b51-b553-adb7d0ee8fc1,,500,500,fixation,,<div class = centerbox><div class = fixation>+</div></div>,none,500,test,,,,,,,,,,,405,71,poldrack-categorize,504,559759,0.0-503.0,7f1344b7-7711-4b51-b553-adb7d0ee8fc1,,1500,250,stim,,"<div class = centerbox><div class = stroop-stim style = ""color:green"">GREEN</div></div>","66,71,82",1500,test,,,congruent,TRUE,71,,,500,green,green,-1,-1,poldrack-single-stim,505,560520,0.0-504.0,7f1344b7-7711-4b51-b553-adb7d0ee8fc1,,500,500,fixation,,<div class = centerbox><div class = fixation>+</div></div>,none,500,test,,,,,,,,,,,439,66,poldrack-categorize,506,563027,0.0-505.0,7f1344b7-7711-4b51-b553-adb7d0ee8fc1,,1500,250,stim,,"<div class = centerbox><div class = stroop-stim style = ""color:blue"">BLUE</div></div>","66,71,82",1500,test,,,congruent,TRUE,66,,,500,blue,blue,-1,-1,poldrack-single-stim,507,563788,0.0-506.0,7f1344b7-7711-4b51-b553-adb7d0ee8fc1,,500,500,fixation,,<div class = centerbox><div class = fixation>+</div></div>,none,500,test,,,,,,,,,,,570,66,poldrack-categorize,508,566297,0.0-507.0,7f1344b7-7711-4b51-b553-adb7d0ee8fc1,,1500,250,stim,,"<div class = centerbox><div class = stroop-stim style = ""color:blue"">BLUE</div></div>","66,71,82",1500,test,,,congruent,TRUE,66,,,500,blue,blue,-1,-1,poldrack-single-stim,509,567050,0.0-508.0,7f1344b7-7711-4b51-b553-adb7d0ee8fc1,,500,500,fixation,,<div class = centerbox><div class = fixation>+</div></div>,none,500,test,,,,,,,,,,,473,66,poldrack-categorize,510,569563,0.0-509.0,7f1344b7-7711-4b51-b553-adb7d0ee8fc1,,1500,250,stim,,"<div class = centerbox><div class = stroop-stim style = ""color:blue"">BLUE</div></div>","66,71,82",1500,test,,,congruent,TRUE,66,,,500,blue,blue,-1,-1,poldrack-single-stim,511,570324,0.0-510.0,7f1344b7-7711-4b51-b553-adb7d0ee8fc1,,500,500,fixation,,<div class = centerbox><div class = fixation>+</div></div>,none,500,test,,,,,,,,,,,538,66,poldrack-categorize,512,572837,0.0-511.0,7f1344b7-7711-4b51-b553-adb7d0ee8fc1,,1500,250,stim,,"<div class = centerbox><div class = stroop-stim style = ""color:blue"">GREEN</div></div>","66,71,82",1500,test,,,incongruent,TRUE,66,,,500,blue,green,-1,-1,poldrack-single-stim,513,573597,0.0-512.0,7f1344b7-7711-4b51-b553-adb7d0ee8fc1,,500,500,fixation,,<div class = centerbox><div class = fixation>+</div></div>,none,500,test,,,,,,,,,,,447,66,poldrack-categorize,514,576111,0.0-513.0,7f1344b7-7711-4b51-b553-adb7d0ee8fc1,,1500,250,stim,,"<div class = centerbox><div class = stroop-stim style = ""color:blue"">GREEN</div></div>","66,71,82",1500,test,,,incongruent,TRUE,66,,,500,blue,green,-1,-1,poldrack-single-stim,515,576871,0.0-514.0,7f1344b7-7711-4b51-b553-adb7d0ee8fc1,,500,500,fixation,,<div class = centerbox><div class = fixation>+</div></div>,none,500,test,,,,,,,,,,,454,66,poldrack-categorize,516,579385,0.0-515.0,7f1344b7-7711-4b51-b553-adb7d0ee8fc1,,1500,250,stim,,"<div class = centerbox><div class = stroop-stim style = ""color:blue"">BLUE</div></div>","66,71,82",1500,test,,,congruent,TRUE,66,,,500,blue,blue,-1,-1,poldrack-single-stim,517,580141,0.0-516.0,7f1344b7-7711-4b51-b553-adb7d0ee8fc1,,500,500,fixation,,<div class = centerbox><div class = fixation>+</div></div>,none,500,test,,,,,,,,,,,360,82,poldrack-categorize,518,582653,0.0-517.0,7f1344b7-7711-4b51-b553-adb7d0ee8fc1,,1500,250,stim,,"<div class = centerbox><div class = stroop-stim style = ""color:red"">GREEN</div></div>","66,71,82",1500,test,,,incongruent,TRUE,82,,,500,red,green,-1,-1,poldrack-single-stim,519,583413,0.0-518.0,7f1344b7-7711-4b51-b553-adb7d0ee8fc1,,500,500,fixation,,<div class = centerbox><div class = fixation>+</div></div>,none,500,test,,,,,,,,,,,336,82,poldrack-categorize,520,585926,0.0-519.0,7f1344b7-7711-4b51-b553-adb7d0ee8fc1,,1500,250,stim,,"<div class = centerbox><div class = stroop-stim style = ""color:red"">RED</div></div>","66,71,82",1500,test,,,congruent,TRUE,82,,,500,red,red,-1,-1,poldrack-single-stim,521,586687,0.0-520.0,7f1344b7-7711-4b51-b553-adb7d0ee8fc1,,500,500,fixation,,<div class = centerbox><div class = fixation>+</div></div>,none,500,test,,,,,,,,,,,499,71,poldrack-categorize,522,589198,0.0-521.0,7f1344b7-7711-4b51-b553-adb7d0ee8fc1,,1500,250,stim,,"<div class = centerbox><div class = stroop-stim style = ""color:green"">BLUE</div></div>","66,71,82",1500,test,,,incongruent,TRUE,71,,,500,green,blue,-1,-1,poldrack-single-stim,523,589953,0.0-522.0,7f1344b7-7711-4b51-b553-adb7d0ee8fc1,,500,500,fixation,,<div class = centerbox><div class = fixation>+</div></div>,none,500,test,,,,,,,,,,,597,82,poldrack-categorize,524,592462,0.0-523.0,7f1344b7-7711-4b51-b553-adb7d0ee8fc1,,1500,250,stim,,"<div class = centerbox><div class = stroop-stim style = ""color:red"">BLUE</div></div>","66,71,82",1500,test,,,incongruent,TRUE,82,,,500,red,blue,-1,-1,poldrack-single-stim,525,593223,0.0-524.0,7f1344b7-7711-4b51-b553-adb7d0ee8fc1,,500,500,fixation,,<div class = centerbox><div class = fixation>+</div></div>,none,500,test,,,,,,,,,,,501,82,poldrack-categorize,526,595730,0.0-525.0,7f1344b7-7711-4b51-b553-adb7d0ee8fc1,,1500,250,stim,,"<div class = centerbox><div class = stroop-stim style = ""color:red"">RED</div></div>","66,71,82",1500,test,,,congruent,TRUE,82,,,500,red,red,-1,-1,poldrack-single-stim,527,596491,0.0-526.0,7f1344b7-7711-4b51-b553-adb7d0ee8fc1,,500,500,fixation,,<div class = centerbox><div class = fixation>+</div></div>,none,500,test,,,,,,,,,,,575,66,poldrack-categorize,528,599004,0.0-527.0,7f1344b7-7711-4b51-b553-adb7d0ee8fc1,,1500,250,stim,,"<div class = centerbox><div class = stroop-stim style = ""color:blue"">BLUE</div></div>","66,71,82",1500,test,,,congruent,TRUE,66,,,500,blue,blue,-1,-1,poldrack-single-stim,529,599765,0.0-528.0,7f1344b7-7711-4b51-b553-adb7d0ee8fc1,,500,500,fixation,,<div class = centerbox><div class = fixation>+</div></div>,none,500,test,,,,,,,,,,,454,82,poldrack-categorize,530,602278,0.0-529.0,7f1344b7-7711-4b51-b553-adb7d0ee8fc1,,1500,250,stim,,"<div class = centerbox><div class = stroop-stim style = ""color:red"">BLUE</div></div>","66,71,82",1500,test,,,incongruent,TRUE,82,,,500,red,blue,-1,-1,poldrack-single-stim,531,603039,0.0-530.0,7f1344b7-7711-4b51-b553-adb7d0ee8fc1,,500,500,fixation,,<div class = centerbox><div class = fixation>+</div></div>,none,500,test,,,,,,,,,,,555,66,poldrack-categorize,532,605552,0.0-531.0,7f1344b7-7711-4b51-b553-adb7d0ee8fc1,,1500,250,stim,,"<div class = centerbox><div class = stroop-stim style = ""color:green"">BLUE</div></div>","66,71,82",1500,test,,,incongruent,FALSE,71,,,500,green,blue,-1,-1,poldrack-single-stim,533,606309,0.0-532.0,7f1344b7-7711-4b51-b553-adb7d0ee8fc1,,500,500,fixation,,<div class = centerbox><div class = fixation>+</div></div>,none,500,test,,,,,,,,,,,1052,71,poldrack-categorize,534,608820,0.0-533.0,7f1344b7-7711-4b51-b553-adb7d0ee8fc1,,1500,250,stim,,"<div class = centerbox><div class = stroop-stim style = ""color:green"">RED</div></div>","66,71,82",1500,test,,,incongruent,TRUE,71,,,500,green,red,-1,-1,poldrack-single-stim,535,609580,0.0-534.0,7f1344b7-7711-4b51-b553-adb7d0ee8fc1,,500,500,fixation,,<div class = centerbox><div class = fixation>+</div></div>,none,500,test,,,,,,,,,,,775,66,poldrack-categorize,536,612094,0.0-535.0,7f1344b7-7711-4b51-b553-adb7d0ee8fc1,,1500,250,stim,,"<div class = centerbox><div class = stroop-stim style = ""color:blue"">RED</div></div>","66,71,82",1500,test,,,incongruent,TRUE,66,,,500,blue,red,-1,-1,poldrack-single-stim,537,612854,0.0-536.0,7f1344b7-7711-4b51-b553-adb7d0ee8fc1,,500,500,fixation,,<div class = centerbox><div class = fixation>+</div></div>,none,500,test,,,,,,,,,,,532,66,poldrack-categorize,538,615368,0.0-537.0,7f1344b7-7711-4b51-b553-adb7d0ee8fc1,,1500,250,stim,,"<div class = centerbox><div class = stroop-stim style = ""color:blue"">BLUE</div></div>","66,71,82",1500,test,,,congruent,TRUE,66,,,500,blue,blue,-1,-1,poldrack-single-stim,539,616128,0.0-538.0,7f1344b7-7711-4b51-b553-adb7d0ee8fc1,,500,500,fixation,,<div class = centerbox><div class = fixation>+</div></div>,none,500,test,,,,,,,,,,,544,82,poldrack-categorize,540,618641,0.0-539.0,7f1344b7-7711-4b51-b553-adb7d0ee8fc1,,1500,250,stim,,"<div class = centerbox><div class = stroop-stim style = ""color:red"">GREEN</div></div>","66,71,82",1500,test,,,incongruent,TRUE,82,,,500,red,green,-1,-1,poldrack-single-stim,541,619402,0.0-540.0,7f1344b7-7711-4b51-b553-adb7d0ee8fc1,,500,500,fixation,,<div class = centerbox><div class = fixation>+</div></div>,none,500,test,,,,,,,,,,,570,82,poldrack-categorize,542,621909,0.0-541.0,7f1344b7-7711-4b51-b553-adb7d0ee8fc1,,1500,250,stim,,"<div class = centerbox><div class = stroop-stim style = ""color:red"">BLUE</div></div>","66,71,82",1500,test,,,incongruent,TRUE,82,,,500,red,blue,-1,-1,poldrack-single-stim,543,622670,0.0-542.0,7f1344b7-7711-4b51-b553-adb7d0ee8fc1,,500,500,fixation,,<div class = centerbox><div class = fixation>+</div></div>,none,500,test,,,,,,,,,,,706,71,poldrack-categorize,544,625183,0.0-543.0,7f1344b7-7711-4b51-b553-adb7d0ee8fc1,,1500,250,stim,,"<div class = centerbox><div class = stroop-stim style = ""color:green"">BLUE</div></div>","66,71,82",1500,test,,,incongruent,TRUE,71,,,500,green,blue,-1,-1,poldrack-single-stim,545,625942,0.0-544.0,7f1344b7-7711-4b51-b553-adb7d0ee8fc1,,500,500,fixation,,<div class = centerbox><div class = fixation>+</div></div>,none,500,test,,,,,,,,,,,443,71,poldrack-categorize,546,628447,0.0-545.0,7f1344b7-7711-4b51-b553-adb7d0ee8fc1,,1500,250,stim,,"<div class = centerbox><div class = stroop-stim style = ""color:green"">BLUE</div></div>","66,71,82",1500,test,,,incongruent,TRUE,71,,,500,green,blue,-1,-1,poldrack-single-stim,547,629206,0.0-546.0,7f1344b7-7711-4b51-b553-adb7d0ee8fc1,,500,500,fixation,,<div class = centerbox><div class = fixation>+</div></div>,none,500,test,,,,,,,,,,,522,66,poldrack-categorize,548,631719,0.0-547.0,7f1344b7-7711-4b51-b553-adb7d0ee8fc1,,1500,250,stim,,"<div class = centerbox><div class = stroop-stim style = ""color:blue"">GREEN</div></div>","66,71,82",1500,test,,,incongruent,TRUE,66,,,500,blue,green,-1,-1,poldrack-single-stim,549,632480,0.0-548.0,7f1344b7-7711-4b51-b553-adb7d0ee8fc1,,500,500,fixation,,<div class = centerbox><div class = fixation>+</div></div>,none,500,test,,,,,,,,,,,512,82,poldrack-categorize,550,634993,0.0-549.0,7f1344b7-7711-4b51-b553-adb7d0ee8fc1,,1500,250,stim,,"<div class = centerbox><div class = stroop-stim style = ""color:red"">RED</div></div>","66,71,82",1500,test,,,congruent,TRUE,82,,,500,red,red,-1,-1,poldrack-single-stim,551,635753,0.0-550.0,7f1344b7-7711-4b51-b553-adb7d0ee8fc1,,500,500,fixation,,<div class = centerbox><div class = fixation>+</div></div>,none,500,test,,,,,,,,,,,1016,66,poldrack-categorize,552,638267,0.0-551.0,7f1344b7-7711-4b51-b553-adb7d0ee8fc1,,1500,250,stim,,"<div class = centerbox><div class = stroop-stim style = ""color:blue"">BLUE</div></div>","66,71,82",1500,test,,,congruent,TRUE,66,,,500,blue,blue,-1,-1,poldrack-single-stim,553,639027,0.0-552.0,7f1344b7-7711-4b51-b553-adb7d0ee8fc1,,500,500,fixation,,<div class = centerbox><div class = fixation>+</div></div>,none,500,test,,,,,,,,,,,702,71,poldrack-categorize,554,641541,0.0-553.0,7f1344b7-7711-4b51-b553-adb7d0ee8fc1,,1500,250,stim,,"<div class = centerbox><div class = stroop-stim style = ""color:green"">GREEN</div></div>","66,71,82",1500,test,,,congruent,TRUE,71,,,500,green,green,-1,-1,poldrack-single-stim,555,642301,0.0-554.0,7f1344b7-7711-4b51-b553-adb7d0ee8fc1,,500,500,fixation,,<div class = centerbox><div class = fixation>+</div></div>,none,500,test,,,,,,,,,,,572,66,poldrack-categorize,556,644814,0.0-555.0,7f1344b7-7711-4b51-b553-adb7d0ee8fc1,,1500,250,stim,,"<div class = centerbox><div class = stroop-stim style = ""color:blue"">GREEN</div></div>","66,71,82",1500,test,,,incongruent,TRUE,66,,,500,blue,green,-1,-1,poldrack-single-stim,557,645575,0.0-556.0,7f1344b7-7711-4b51-b553-adb7d0ee8fc1,,500,500,fixation,,<div class = centerbox><div class = fixation>+</div></div>,none,500,test,,,,,,,,,,,610,66,poldrack-categorize,558,648088,0.0-557.0,7f1344b7-7711-4b51-b553-adb7d0ee8fc1,,1500,250,stim,,"<div class = centerbox><div class = stroop-stim style = ""color:blue"">BLUE</div></div>","66,71,82",1500,test,,,congruent,TRUE,66,,,500,blue,blue,-1,-1,poldrack-single-stim,559,648848,0.0-558.0,7f1344b7-7711-4b51-b553-adb7d0ee8fc1,,500,500,fixation,,<div class = centerbox><div class = fixation>+</div></div>,none,500,test,,,,,,,,,,,520,71,poldrack-categorize,560,651362,0.0-559.0,7f1344b7-7711-4b51-b553-adb7d0ee8fc1,,1500,250,stim,,"<div class = centerbox><div class = stroop-stim style = ""color:green"">GREEN</div></div>","66,71,82",1500,test,,,congruent,TRUE,71,,,500,green,green,-1,-1,poldrack-single-stim,561,652123,0.0-560.0,7f1344b7-7711-4b51-b553-adb7d0ee8fc1,,500,500,fixation,,<div class = centerbox><div class = fixation>+</div></div>,none,500,test,,,,,,,,,,,590,82,poldrack-categorize,562,654630,0.0-561.0,7f1344b7-7711-4b51-b553-adb7d0ee8fc1,,1500,250,stim,,"<div class = centerbox><div class = stroop-stim style = ""color:red"">RED</div></div>","66,71,82",1500,test,,,congruent,TRUE,82,,,500,red,red,-1,-1,poldrack-single-stim,563,655390,0.0-562.0,7f1344b7-7711-4b51-b553-adb7d0ee8fc1,,500,500,fixation,,<div class = centerbox><div class = fixation>+</div></div>,none,500,test,,,,,,,,,,,808,82,poldrack-categorize,564,657904,0.0-563.0,7f1344b7-7711-4b51-b553-adb7d0ee8fc1,,1500,250,stim,,"<div class = centerbox><div class = stroop-stim style = ""color:red"">BLUE</div></div>","66,71,82",1500,test,,,incongruent,TRUE,82,,,500,red,blue,-1,-1,poldrack-single-stim,565,658664,0.0-564.0,7f1344b7-7711-4b51-b553-adb7d0ee8fc1,,500,500,fixation,,<div class = centerbox><div class = fixation>+</div></div>,none,500,test,,,,,,,,,,,870,71,poldrack-categorize,566,661178,0.0-565.0,7f1344b7-7711-4b51-b553-adb7d0ee8fc1,,1500,250,stim,,"<div class = centerbox><div class = stroop-stim style = ""color:green"">RED</div></div>","66,71,82",1500,test,,,incongruent,TRUE,71,,,500,green,red,-1,-1,poldrack-single-stim,567,661938,0.0-566.0,7f1344b7-7711-4b51-b553-adb7d0ee8fc1,,500,500,fixation,,<div class = centerbox><div class = fixation>+</div></div>,none,500,test,,,,,,,,,,,860,82,poldrack-categorize,568,664451,0.0-567.0,7f1344b7-7711-4b51-b553-adb7d0ee8fc1,,1500,250,stim,,"<div class = centerbox><div class = stroop-stim style = ""color:red"">BLUE</div></div>","66,71,82",1500,test,,,incongruent,TRUE,82,,,500,red,blue,-1,-1,poldrack-single-stim,569,665208,0.0-568.0,7f1344b7-7711-4b51-b553-adb7d0ee8fc1,,500,500,fixation,,<div class = centerbox><div class = fixation>+</div></div>,none,500,test,,,,,,,,,,,645,66,poldrack-categorize,570,667719,0.0-569.0,7f1344b7-7711-4b51-b553-adb7d0ee8fc1,,1500,250,stim,,"<div class = centerbox><div class = stroop-stim style = ""color:blue"">BLUE</div></div>","66,71,82",1500,test,,,congruent,TRUE,66,,,500,blue,blue,-1,-1,poldrack-single-stim,571,668480,0.0-570.0,7f1344b7-7711-4b51-b553-adb7d0ee8fc1,,500,500,fixation,,<div class = centerbox><div class = fixation>+</div></div>,none,500,test,,,,,,,,,,,469,71,poldrack-categorize,572,670993,0.0-571.0,7f1344b7-7711-4b51-b553-adb7d0ee8fc1,,1500,250,stim,,"<div class = centerbox><div class = stroop-stim style = ""color:green"">GREEN</div></div>","66,71,82",1500,test,,,congruent,TRUE,71,,,500,green,green,-1,-1,poldrack-single-stim,573,671754,0.0-572.0,7f1344b7-7711-4b51-b553-adb7d0ee8fc1,,500,500,fixation,,<div class = centerbox><div class = fixation>+</div></div>,none,500,test,,,,,,,,,,,558,82,poldrack-categorize,574,674267,0.0-573.0,7f1344b7-7711-4b51-b553-adb7d0ee8fc1,,1500,250,stim,,"<div class = centerbox><div class = stroop-stim style = ""color:red"">GREEN</div></div>","66,71,82",1500,test,,,incongruent,TRUE,82,,,500,red,green,-1,-1,poldrack-single-stim,575,675027,0.0-574.0,7f1344b7-7711-4b51-b553-adb7d0ee8fc1,,500,500,fixation,,<div class = centerbox><div class = fixation>+</div></div>,none,500,test,,,,,,,,,,,715,82,poldrack-categorize,576,677541,0.0-575.0,7f1344b7-7711-4b51-b553-adb7d0ee8fc1,,1500,250,stim,,"<div class = centerbox><div class = stroop-stim style = ""color:red"">GREEN</div></div>","66,71,82",1500,test,,,incongruent,TRUE,82,,,500,red,green,-1,-1,poldrack-single-stim,577,678301,0.0-576.0,7f1344b7-7711-4b51-b553-adb7d0ee8fc1,,500,500,fixation,,<div class = centerbox><div class = fixation>+</div></div>,none,500,test,,,,,,,,,,,593,66,poldrack-categorize,578,680815,0.0-577.0,7f1344b7-7711-4b51-b553-adb7d0ee8fc1,,1500,250,stim,,"<div class = centerbox><div class = stroop-stim style = ""color:blue"">BLUE</div></div>","66,71,82",1500,test,,,congruent,TRUE,66,,,500,blue,blue,-1,-1,poldrack-single-stim,579,681575,0.0-578.0,7f1344b7-7711-4b51-b553-adb7d0ee8fc1,,500,500,fixation,,<div class = centerbox><div class = fixation>+</div></div>,none,500,test,,,,,,,,,,,512,82,poldrack-categorize,580,684088,0.0-579.0,7f1344b7-7711-4b51-b553-adb7d0ee8fc1,,1500,250,stim,,"<div class = centerbox><div class = stroop-stim style = ""color:red"">RED</div></div>","66,71,82",1500,test,,,congruent,TRUE,82,,,500,red,red,-1,-1,poldrack-single-stim,581,684849,0.0-580.0,7f1344b7-7711-4b51-b553-adb7d0ee8fc1,,500,500,fixation,,<div class = centerbox><div class = fixation>+</div></div>,none,500,test,,,,,,,,,,,477,82,poldrack-categorize,582,687362,0.0-581.0,7f1344b7-7711-4b51-b553-adb7d0ee8fc1,,1500,250,stim,,"<div class = centerbox><div class = stroop-stim style = ""color:red"">GREEN</div></div>","66,71,82",1500,test,,,incongruent,TRUE,82,,,500,red,green,-1,-1,poldrack-single-stim,583,688123,0.0-582.0,7f1344b7-7711-4b51-b553-adb7d0ee8fc1,,500,500,fixation,,<div class = centerbox><div class = fixation>+</div></div>,none,500,test,,,,,,,,,,,443,82,poldrack-categorize,584,690636,0.0-583.0,7f1344b7-7711-4b51-b553-adb7d0ee8fc1,,1500,250,stim,,"<div class = centerbox><div class = stroop-stim style = ""color:red"">GREEN</div></div>","66,71,82",1500,test,,,incongruent,TRUE,82,,,500,red,green,-1,-1,poldrack-single-stim,585,691396,0.0-584.0,7f1344b7-7711-4b51-b553-adb7d0ee8fc1,,500,500,fixation,,<div class = centerbox><div class = fixation>+</div></div>,none,500,test,,,,,,,,,,,601,66,poldrack-categorize,586,693903,0.0-585.0,7f1344b7-7711-4b51-b553-adb7d0ee8fc1,,1500,250,stim,,"<div class = centerbox><div class = stroop-stim style = ""color:blue"">RED</div></div>","66,71,82",1500,test,,,incongruent,TRUE,66,,,500,blue,red,-1,-1,poldrack-single-stim,587,694659,0.0-586.0,7f1344b7-7711-4b51-b553-adb7d0ee8fc1,,500,500,fixation,,<div class = centerbox><div class = fixation>+</div></div>,none,500,test,,,,,,,,,,,443,82,poldrack-categorize,588,697172,0.0-587.0,7f1344b7-7711-4b51-b553-adb7d0ee8fc1,,1500,250,stim,,"<div class = centerbox><div class = stroop-stim style = ""color:red"">RED</div></div>","66,71,82",1500,test,,,congruent,TRUE,82,,,500,red,red,-1,-1,poldrack-single-stim,589,697932,0.0-588.0,7f1344b7-7711-4b51-b553-adb7d0ee8fc1,,500,500,fixation,,<div class = centerbox><div class = fixation>+</div></div>,none,500,test,,,,,,,,,,,719,66,poldrack-categorize,590,700446,0.0-589.0,7f1344b7-7711-4b51-b553-adb7d0ee8fc1,,1500,250,stim,,"<div class = centerbox><div class = stroop-stim style = ""color:blue"">RED</div></div>","66,71,82",1500,test,,,incongruent,TRUE,66,,,500,blue,red,-1,-1,poldrack-single-stim,591,701206,0.0-590.0,7f1344b7-7711-4b51-b553-adb7d0ee8fc1,,500,500,fixation,,<div class = centerbox><div class = fixation>+</div></div>,none,500,test,,,,,,,,,,,495,82,poldrack-categorize,592,703720,0.0-591.0,7f1344b7-7711-4b51-b553-adb7d0ee8fc1,,1500,250,stim,,"<div class = centerbox><div class = stroop-stim style = ""color:red"">RED</div></div>","66,71,82",1500,test,,,congruent,TRUE,82,,,500,red,red,-1,-1,poldrack-single-stim,593,704474,0.0-592.0,7f1344b7-7711-4b51-b553-adb7d0ee8fc1,,500,500,fixation,,<div class = centerbox><div class = fixation>+</div></div>,none,500,test,,,,,,,,,,,676,82,poldrack-categorize,594,706982,0.0-593.0,7f1344b7-7711-4b51-b553-adb7d0ee8fc1,,1500,250,stim,,"<div class = centerbox><div class = stroop-stim style = ""color:red"">GREEN</div></div>","66,71,82",1500,test,,,incongruent,TRUE,82,,,500,red,green,-1,-1,poldrack-single-stim,595,707742,0.0-594.0,7f1344b7-7711-4b51-b553-adb7d0ee8fc1,,500,500,fixation,,<div class = centerbox><div class = fixation>+</div></div>,none,500,test,,,,,,,,,,,621,71,poldrack-categorize,596,710256,0.0-595.0,7f1344b7-7711-4b51-b553-adb7d0ee8fc1,,1500,250,stim,,"<div class = centerbox><div class = stroop-stim style = ""color:green"">GREEN</div></div>","66,71,82",1500,test,,,congruent,TRUE,71,,,500,green,green,-1,-1,poldrack-single-stim,597,711016,0.0-596.0,7f1344b7-7711-4b51-b553-adb7d0ee8fc1,,500,500,fixation,,<div class = centerbox><div class = fixation>+</div></div>,none,500,test,,,,,,,,,,,444,66,poldrack-categorize,598,713529,0.0-597.0,7f1344b7-7711-4b51-b553-adb7d0ee8fc1,,1500,250,stim,,"<div class = centerbox><div class = stroop-stim style = ""color:blue"">RED</div></div>","66,71,82",1500,test,,,incongruent,TRUE,66,,,500,blue,red,-1,-1,poldrack-single-stim,599,714290,0.0-598.0,7f1344b7-7711-4b51-b553-adb7d0ee8fc1,,500,500,fixation,,<div class = centerbox><div class = fixation>+</div></div>,none,500,test,,,,,,,,,,,738,82,poldrack-categorize,600,716803,0.0-599.0,7f1344b7-7711-4b51-b553-adb7d0ee8fc1,,1500,250,stim,,"<div class = centerbox><div class = stroop-stim style = ""color:red"">BLUE</div></div>","66,71,82",1500,test,,,incongruent,TRUE,82,,,500,red,blue,-1,-1,poldrack-single-stim,601,717564,0.0-600.0,7f1344b7-7711-4b51-b553-adb7d0ee8fc1,,500,500,fixation,,<div class = centerbox><div class = fixation>+</div></div>,none,500,test,,,,,,,,,,,513,66,poldrack-categorize,602,720077,0.0-601.0,7f1344b7-7711-4b51-b553-adb7d0ee8fc1,,1500,250,stim,,"<div class = centerbox><div class = stroop-stim style = ""color:blue"">RED</div></div>","66,71,82",1500,test,,,incongruent,TRUE,66,,,500,blue,red,-1,-1,poldrack-single-stim,603,720838,0.0-602.0,7f1344b7-7711-4b51-b553-adb7d0ee8fc1,,500,500,fixation,,<div class = centerbox><div class = fixation>+</div></div>,none,500,test,,,,,,,,,,,495,82,poldrack-categorize,604,723345,0.0-603.0,7f1344b7-7711-4b51-b553-adb7d0ee8fc1,,1500,250,stim,,"<div class = centerbox><div class = stroop-stim style = ""color:red"">RED</div></div>","66,71,82",1500,test,,,congruent,TRUE,82,,,500,red,red,-1,-1,poldrack-single-stim,605,724106,0.0-604.0,7f1344b7-7711-4b51-b553-adb7d0ee8fc1,,500,500,fixation,,<div class = centerbox><div class = fixation>+</div></div>,none,500,test,,,,,,,,,,,536,82,poldrack-categorize,606,726619,0.0-605.0,7f1344b7-7711-4b51-b553-adb7d0ee8fc1,,1500,250,stim,,"<div class = centerbox><div class = stroop-stim style = ""color:red"">RED</div></div>","66,71,82",1500,test,,,congruent,TRUE,82,,,500,red,red,-1,-1,poldrack-single-stim,607,727379,0.0-606.0,7f1344b7-7711-4b51-b553-adb7d0ee8fc1,,500,500,fixation,,<div class = centerbox><div class = fixation>+</div></div>,none,500,test,,,,,,,,,,,873,82,poldrack-categorize,608,729893,0.0-607.0,7f1344b7-7711-4b51-b553-adb7d0ee8fc1,,1500,250,stim,,"<div class = centerbox><div class = stroop-stim style = ""color:red"">BLUE</div></div>","66,71,82",1500,test,,,incongruent,TRUE,82,,,500,red,blue,-1,-1,poldrack-single-stim,609,730653,0.0-608.0,7f1344b7-7711-4b51-b553-adb7d0ee8fc1,,500,500,fixation,,<div class = centerbox><div class = fixation>+</div></div>,none,500,test,,,,,,,,,,,518,71,poldrack-categorize,610,733161,0.0-609.0,7f1344b7-7711-4b51-b553-adb7d0ee8fc1,,1500,250,stim,,"<div class = centerbox><div class = stroop-stim style = ""color:green"">GREEN</div></div>","66,71,82",1500,test,,,congruent,TRUE,71,,,500,green,green,-1,-1,poldrack-single-stim,611,733921,0.0-610.0,7f1344b7-7711-4b51-b553-adb7d0ee8fc1,,500,500,fixation,,<div class = centerbox><div class = fixation>+</div></div>,none,500,test,,,,,,,,,,,552,66,poldrack-categorize,612,736434,0.0-611.0,7f1344b7-7711-4b51-b553-adb7d0ee8fc1,,1500,250,stim,,"<div class = centerbox><div class = stroop-stim style = ""color:blue"">GREEN</div></div>","66,71,82",1500,test,,,incongruent,TRUE,66,,,500,blue,green,-1,-1,poldrack-single-stim,613,737192,0.0-612.0,7f1344b7-7711-4b51-b553-adb7d0ee8fc1,,500,500,fixation,,<div class = centerbox><div class = fixation>+</div></div>,none,500,test,,,,,,,,,,,676,66,poldrack-categorize,614,739702,0.0-613.0,7f1344b7-7711-4b51-b553-adb7d0ee8fc1,,1500,250,stim,,"<div class = centerbox><div class = stroop-stim style = ""color:blue"">RED</div></div>","66,71,82",1500,test,,,incongruent,TRUE,66,,,500,blue,red,-1,-1,poldrack-single-stim,615,740463,0.0-614.0,7f1344b7-7711-4b51-b553-adb7d0ee8fc1,,500,500,fixation,,<div class = centerbox><div class = fixation>+</div></div>,none,500,test,,,,,,,,,,,500,66,poldrack-categorize,616,742976,0.0-615.0,7f1344b7-7711-4b51-b553-adb7d0ee8fc1,,1500,250,stim,,"<div class = centerbox><div class = stroop-stim style = ""color:blue"">BLUE</div></div>","66,71,82",1500,test,,,congruent,TRUE,66,,,500,blue,blue,-1,-1,poldrack-single-stim,617,743737,0.0-616.0,7f1344b7-7711-4b51-b553-adb7d0ee8fc1,,500,500,fixation,,<div class = centerbox><div class = fixation>+</div></div>,none,500,test,,,,,,,,,,,520,66,poldrack-categorize,618,746250,0.0-617.0,7f1344b7-7711-4b51-b553-adb7d0ee8fc1,,1500,250,stim,,"<div class = centerbox><div class = stroop-stim style = ""color:blue"">GREEN</div></div>","66,71,82",1500,test,,,incongruent,TRUE,66,,,500,blue,green,-1,-1,poldrack-single-stim,619,747007,0.0-618.0,7f1344b7-7711-4b51-b553-adb7d0ee8fc1,,500,500,fixation,,<div class = centerbox><div class = fixation>+</div></div>,none,500,test,,,,,,,,,,,452,82,poldrack-categorize,620,749518,0.0-619.0,7f1344b7-7711-4b51-b553-adb7d0ee8fc1,,1500,250,stim,,"<div class = centerbox><div class = stroop-stim style = ""color:red"">RED</div></div>","66,71,82",1500,test,,,congruent,TRUE,82,,,500,red,red,-1,-1,poldrack-single-stim,621,750279,0.0-620.0,7f1344b7-7711-4b51-b553-adb7d0ee8fc1,,500,500,fixation,,<div class = centerbox><div class = fixation>+</div></div>,none,500,test,,,,,,,,,,,395,82,poldrack-categorize,622,752792,0.0-621.0,7f1344b7-7711-4b51-b553-adb7d0ee8fc1,,1500,250,stim,,"<div class = centerbox><div class = stroop-stim style = ""color:red"">RED</div></div>","66,71,82",1500,test,,,congruent,TRUE,82,,,500,red,red,-1,-1,poldrack-single-stim,623,753552,0.0-622.0,7f1344b7-7711-4b51-b553-adb7d0ee8fc1,,500,500,fixation,,<div class = centerbox><div class = fixation>+</div></div>,none,500,test,,,,,,,,,,,336,82,poldrack-categorize,624,756066,0.0-623.0,7f1344b7-7711-4b51-b553-adb7d0ee8fc1,,1500,250,stim,,"<div class = centerbox><div class = stroop-stim style = ""color:red"">RED</div></div>","66,71,82",1500,test,,,congruent,TRUE,82,,,500,red,red,-1,-1,poldrack-single-stim,625,756822,0.0-624.0,7f1344b7-7711-4b51-b553-adb7d0ee8fc1,,500,500,fixation,,<div class = centerbox><div class = fixation>+</div></div>,none,500,test,,,,,,,,,,,587,71,poldrack-categorize,626,759334,0.0-625.0,7f1344b7-7711-4b51-b553-adb7d0ee8fc1,,1500,250,stim,,"<div class = centerbox><div class = stroop-stim style = ""color:green"">GREEN</div></div>","66,71,82",1500,test,,,congruent,TRUE,71,,,500,green,green,-1,-1,poldrack-single-stim,627,760094,0.0-626.0,7f1344b7-7711-4b51-b553-adb7d0ee8fc1,,500,500,fixation,,<div class = centerbox><div class = fixation>+</div></div>,none,500,test,,,,,,,,,,,505,66,poldrack-categorize,628,762607,0.0-627.0,7f1344b7-7711-4b51-b553-adb7d0ee8fc1,,1500,250,stim,,"<div class = centerbox><div class = stroop-stim style = ""color:blue"">BLUE</div></div>","66,71,82",1500,test,,,congruent,TRUE,66,,,500,blue,blue,-1,-1,poldrack-single-stim,629,763368,0.0-628.0,7f1344b7-7711-4b51-b553-adb7d0ee8fc1,,500,500,fixation,,<div class = centerbox><div class = fixation>+</div></div>,none,500,test,,,,,,,,,,,753,66,poldrack-categorize,630,765881,0.0-629.0,7f1344b7-7711-4b51-b553-adb7d0ee8fc1,,1500,250,stim,,"<div class = centerbox><div class = stroop-stim style = ""color:blue"">RED</div></div>","66,71,82",1500,test,,,incongruent,TRUE,66,,,500,blue,red,-1,-1,poldrack-single-stim,631,766642,0.0-630.0,7f1344b7-7711-4b51-b553-adb7d0ee8fc1,,500,500,fixation,,<div class = centerbox><div class = fixation>+</div></div>,none,500,test,,,,,,,,,,,511,82,poldrack-categorize,632,769155,0.0-631.0,7f1344b7-7711-4b51-b553-adb7d0ee8fc1,,1500,250,stim,,"<div class = centerbox><div class = stroop-stim style = ""color:red"">RED</div></div>","66,71,82",1500,test,,,congruent,TRUE,82,,,500,red,red,36624,,survey-text,633,806035,0.0-633.0,7f1344b7-7711-4b51-b553-adb7d0ee8fc1,,,,post task questions,,,,,,,,,,,"{""Q0"":""press the \""R\"" key when the ink color is red, press the \""B\"" key when the ink color is blue, press the \""G\"" key when the ink color is green. "",""Q1"":""""}",,,,,3165,13,poldrack-text,634,810206,0.0-634.0,7f1344b7-7711-4b51-b553-adb7d0ee8fc1,<div class = centerbox><p class = center-block-text>Thanks for completing this task!</p><p class = center-block-text>Press <strong>enter</strong> to continue.</p></div>,3165,0,end,,,,,,,,,,,,stroop,,,,TRUE822,13,text,635,811070,0.0-635.0,7f1344b7-7711-4b51-b553-adb7d0ee8fc1,,,,,,,,,,,,,,,,,,,,