rt,key_press,trial_type,trial_index,time_elapsed,internal_node_id,subject,text,block_duration,timing_post_trial,trial_id,view_history,stimulus,possible_responses,stim_duration,exp_stage,stim_place,stim_id,condition,correct,correct_response,responses,exp_id,feedback_duration,stim_color,stim_word,credit_var7511,13,text,0,7513,0.0-0.0,f1f70f72-9867-4424-8914-65578cc8c0a8,,,,,,,,,,,,,,,,,,,,3455,13,poldrack-text,389,501449,0.0-388.0-0.0,f1f70f72-9867-4424-8914-65578cc8c0a8,<div class = centerbox><p class = center-block-text>Done with instructions. Press <strong>enter</strong> to continue.</p></div>,3455,0,instruction,,,,,,,,,,,,,,,,22958,,poldrack-instructions,390,524407,0.0-388.0-1.0,f1f70f72-9867-4424-8914-65578cc8c0a8,,,,instruction,"[{""page_index"":0,""viewing_time"":22958}]",,,,,,,,,,,,,,,6911,13,poldrack-text,391,532326,0.0-389.0,f1f70f72-9867-4424-8914-65578cc8c0a8,"<div class = centerbox><p class = block-text>We will start with a few practice trials. Remember, press the key corresponding to the <strong>ink</strong> color of the word: ""r"" for words colored red, ""b"" for words colored blue, and ""g"" for words colored green.</p><p class = block-text>Press <strong>enter</strong> to begin practice.</p></div>",6911,1000,practice_intro,,,,,,,,,,,,,,,,-1,-1,poldrack-single-stim,392,533834,0.0-390.0,f1f70f72-9867-4424-8914-65578cc8c0a8,,500,500,fixation,,<div class = centerbox><div class = fixation>+</div></div>,none,500,practice,,,,,,,,,,,1278,71,poldrack-categorize,393,536342,0.0-391.0,f1f70f72-9867-4424-8914-65578cc8c0a8,,1500,250,stim,,"<div class = centerbox><div class = stroop-stim style = ""color:green"">BLUE</div></div>","66,71,82",1500,practice,,,incongruent,TRUE,71,,,500,green,blue,-1,-1,poldrack-single-stim,394,537102,0.0-392.0,f1f70f72-9867-4424-8914-65578cc8c0a8,,500,500,fixation,,<div class = centerbox><div class = fixation>+</div></div>,none,500,practice,,,,,,,,,,,-1,-1,poldrack-categorize,395,539615,0.0-393.0,f1f70f72-9867-4424-8914-65578cc8c0a8,,1500,250,stim,,"<div class = centerbox><div class = stroop-stim style = ""color:green"">GREEN</div></div>","66,71,82",1500,practice,,,congruent,FALSE,71,,,500,green,green,-1,-1,poldrack-single-stim,396,540375,0.0-394.0,f1f70f72-9867-4424-8914-65578cc8c0a8,,500,500,fixation,,<div class = centerbox><div class = fixation>+</div></div>,none,500,practice,,,,,,,,,,,1071,82,poldrack-categorize,397,542883,0.0-395.0,f1f70f72-9867-4424-8914-65578cc8c0a8,,1500,250,stim,,"<div class = centerbox><div class = stroop-stim style = ""color:red"">RED</div></div>","66,71,82",1500,practice,,,congruent,TRUE,82,,,500,red,red,-1,-1,poldrack-single-stim,398,543644,0.0-396.0,f1f70f72-9867-4424-8914-65578cc8c0a8,,500,500,fixation,,<div class = centerbox><div class = fixation>+</div></div>,none,500,practice,,,,,,,,,,,1064,82,poldrack-categorize,399,546155,0.0-397.0,f1f70f72-9867-4424-8914-65578cc8c0a8,,1500,250,stim,,"<div class = centerbox><div class = stroop-stim style = ""color:red"">BLUE</div></div>","66,71,82",1500,practice,,,incongruent,TRUE,82,,,500,red,blue,-1,-1,poldrack-single-stim,400,546914,0.0-398.0,f1f70f72-9867-4424-8914-65578cc8c0a8,,500,500,fixation,,<div class = centerbox><div class = fixation>+</div></div>,none,500,practice,,,,,,,,,,,1036,66,poldrack-categorize,401,549425,0.0-399.0,f1f70f72-9867-4424-8914-65578cc8c0a8,,1500,250,stim,,"<div class = centerbox><div class = stroop-stim style = ""color:blue"">BLUE</div></div>","66,71,82",1500,practice,,,congruent,TRUE,66,,,500,blue,blue,-1,-1,poldrack-single-stim,402,550186,0.0-400.0,f1f70f72-9867-4424-8914-65578cc8c0a8,,500,500,fixation,,<div class = centerbox><div class = fixation>+</div></div>,none,500,practice,,,,,,,,,,,1149,66,poldrack-categorize,403,552693,0.0-401.0,f1f70f72-9867-4424-8914-65578cc8c0a8,,1500,250,stim,,"<div class = centerbox><div class = stroop-stim style = ""color:blue"">GREEN</div></div>","66,71,82",1500,practice,,,incongruent,TRUE,66,,,500,blue,green,-1,-1,poldrack-single-stim,404,553453,0.0-402.0,f1f70f72-9867-4424-8914-65578cc8c0a8,,500,500,fixation,,<div class = centerbox><div class = fixation>+</div></div>,none,500,practice,,,,,,,,,,,1142,66,poldrack-categorize,405,555962,0.0-403.0,f1f70f72-9867-4424-8914-65578cc8c0a8,,1500,250,stim,,"<div class = centerbox><div class = stroop-stim style = ""color:blue"">BLUE</div></div>","66,71,82",1500,practice,,,congruent,TRUE,66,,,500,blue,blue,-1,-1,poldrack-single-stim,406,556721,0.0-404.0,f1f70f72-9867-4424-8914-65578cc8c0a8,,500,500,fixation,,<div class = centerbox><div class = fixation>+</div></div>,none,500,practice,,,,,,,,,,,1002,82,poldrack-categorize,407,559235,0.0-405.0,f1f70f72-9867-4424-8914-65578cc8c0a8,,1500,250,stim,,"<div class = centerbox><div class = stroop-stim style = ""color:red"">GREEN</div></div>","66,71,82",1500,practice,,,incongruent,TRUE,82,,,500,red,green,-1,-1,poldrack-single-stim,408,559989,0.0-406.0,f1f70f72-9867-4424-8914-65578cc8c0a8,,500,500,fixation,,<div class = centerbox><div class = fixation>+</div></div>,none,500,practice,,,,,,,,,,,840,66,poldrack-categorize,409,562503,0.0-407.0,f1f70f72-9867-4424-8914-65578cc8c0a8,,1500,250,stim,,"<div class = centerbox><div class = stroop-stim style = ""color:blue"">RED</div></div>","66,71,82",1500,practice,,,incongruent,TRUE,66,,,500,blue,red,-1,-1,poldrack-single-stim,410,563263,0.0-408.0,f1f70f72-9867-4424-8914-65578cc8c0a8,,500,500,fixation,,<div class = centerbox><div class = fixation>+</div></div>,none,500,practice,,,,,,,,,,,708,82,poldrack-categorize,411,565776,0.0-409.0,f1f70f72-9867-4424-8914-65578cc8c0a8,,1500,250,stim,,"<div class = centerbox><div class = stroop-stim style = ""color:red"">RED</div></div>","66,71,82",1500,practice,,,congruent,TRUE,82,,,500,red,red,-1,-1,poldrack-single-stim,412,566537,0.0-410.0,f1f70f72-9867-4424-8914-65578cc8c0a8,,500,500,fixation,,<div class = centerbox><div class = fixation>+</div></div>,none,500,practice,,,,,,,,,,,793,71,poldrack-categorize,413,569044,0.0-411.0,f1f70f72-9867-4424-8914-65578cc8c0a8,,1500,250,stim,,"<div class = centerbox><div class = stroop-stim style = ""color:green"">GREEN</div></div>","66,71,82",1500,practice,,,congruent,TRUE,71,,,500,green,green,-1,-1,poldrack-single-stim,414,569805,0.0-412.0,f1f70f72-9867-4424-8914-65578cc8c0a8,,500,500,fixation,,<div class = centerbox><div class = fixation>+</div></div>,none,500,practice,,,,,,,,,,,1093,71,poldrack-categorize,415,572318,0.0-413.0,f1f70f72-9867-4424-8914-65578cc8c0a8,,1500,250,stim,,"<div class = centerbox><div class = stroop-stim style = ""color:green"">RED</div></div>","66,71,82",1500,practice,,,incongruent,TRUE,71,,,500,green,red,-1,-1,poldrack-single-stim,416,573079,0.0-414.0,f1f70f72-9867-4424-8914-65578cc8c0a8,,500,500,fixation,,<div class = centerbox><div class = fixation>+</div></div>,none,500,practice,,,,,,,,,,,940,66,poldrack-categorize,417,575592,0.0-415.0,f1f70f72-9867-4424-8914-65578cc8c0a8,,1500,250,stim,,"<div class = centerbox><div class = stroop-stim style = ""color:blue"">BLUE</div></div>","66,71,82",1500,practice,,,congruent,TRUE,66,,,500,blue,blue,-1,-1,poldrack-single-stim,418,576352,0.0-416.0,f1f70f72-9867-4424-8914-65578cc8c0a8,,500,500,fixation,,<div class = centerbox><div class = fixation>+</div></div>,none,500,practice,,,,,,,,,,,889,82,poldrack-categorize,419,578866,0.0-417.0,f1f70f72-9867-4424-8914-65578cc8c0a8,,1500,250,stim,,"<div class = centerbox><div class = stroop-stim style = ""color:red"">BLUE</div></div>","66,71,82",1500,practice,,,incongruent,TRUE,82,,,500,red,blue,-1,-1,poldrack-single-stim,420,579626,0.0-418.0,f1f70f72-9867-4424-8914-65578cc8c0a8,,500,500,fixation,,<div class = centerbox><div class = fixation>+</div></div>,none,500,practice,,,,,,,,,,,1152,66,poldrack-categorize,421,582139,0.0-419.0,f1f70f72-9867-4424-8914-65578cc8c0a8,,1500,250,stim,,"<div class = centerbox><div class = stroop-stim style = ""color:blue"">BLUE</div></div>","66,71,82",1500,practice,,,congruent,TRUE,66,,,500,blue,blue,-1,-1,poldrack-single-stim,422,582896,0.0-420.0,f1f70f72-9867-4424-8914-65578cc8c0a8,,500,500,fixation,,<div class = centerbox><div class = fixation>+</div></div>,none,500,practice,,,,,,,,,,,955,66,poldrack-categorize,423,585407,0.0-421.0,f1f70f72-9867-4424-8914-65578cc8c0a8,,1500,250,stim,,"<div class = centerbox><div class = stroop-stim style = ""color:blue"">RED</div></div>","66,71,82",1500,practice,,,incongruent,TRUE,66,,,500,blue,red,-1,-1,poldrack-single-stim,424,586168,0.0-422.0,f1f70f72-9867-4424-8914-65578cc8c0a8,,500,500,fixation,,<div class = centerbox><div class = fixation>+</div></div>,none,500,practice,,,,,,,,,,,817,71,poldrack-categorize,425,588681,0.0-423.0,f1f70f72-9867-4424-8914-65578cc8c0a8,,1500,250,stim,,"<div class = centerbox><div class = stroop-stim style = ""color:green"">BLUE</div></div>","66,71,82",1500,practice,,,incongruent,TRUE,71,,,500,green,blue,-1,-1,poldrack-single-stim,426,589442,0.0-424.0,f1f70f72-9867-4424-8914-65578cc8c0a8,,500,500,fixation,,<div class = centerbox><div class = fixation>+</div></div>,none,500,practice,,,,,,,,,,,679,71,poldrack-categorize,427,591955,0.0-425.0,f1f70f72-9867-4424-8914-65578cc8c0a8,,1500,250,stim,,"<div class = centerbox><div class = stroop-stim style = ""color:green"">GREEN</div></div>","66,71,82",1500,practice,,,congruent,TRUE,71,,,500,green,green,-1,-1,poldrack-single-stim,428,592716,0.0-426.0,f1f70f72-9867-4424-8914-65578cc8c0a8,,500,500,fixation,,<div class = centerbox><div class = fixation>+</div></div>,none,500,practice,,,,,,,,,,,685,71,poldrack-categorize,429,595229,0.0-427.0,f1f70f72-9867-4424-8914-65578cc8c0a8,,1500,250,stim,,"<div class = centerbox><div class = stroop-stim style = ""color:green"">GREEN</div></div>","66,71,82",1500,practice,,,congruent,TRUE,71,,,500,green,green,-1,-1,poldrack-single-stim,430,595989,0.0-428.0,f1f70f72-9867-4424-8914-65578cc8c0a8,,500,500,fixation,,<div class = centerbox><div class = fixation>+</div></div>,none,500,practice,,,,,,,,,,,837,66,poldrack-categorize,431,598502,0.0-429.0,f1f70f72-9867-4424-8914-65578cc8c0a8,,1500,250,stim,,"<div class = centerbox><div class = stroop-stim style = ""color:blue"">GREEN</div></div>","66,71,82",1500,practice,,,incongruent,TRUE,66,,,500,blue,green,-1,-1,poldrack-single-stim,432,599263,0.0-430.0,f1f70f72-9867-4424-8914-65578cc8c0a8,,500,500,fixation,,<div class = centerbox><div class = fixation>+</div></div>,none,500,practice,,,,,,,,,,,648,82,poldrack-categorize,433,601774,0.0-431.0,f1f70f72-9867-4424-8914-65578cc8c0a8,,1500,250,stim,,"<div class = centerbox><div class = stroop-stim style = ""color:red"">RED</div></div>","66,71,82",1500,practice,,,congruent,TRUE,82,,,500,red,red,-1,-1,poldrack-single-stim,434,602531,0.0-432.0,f1f70f72-9867-4424-8914-65578cc8c0a8,,500,500,fixation,,<div class = centerbox><div class = fixation>+</div></div>,none,500,practice,,,,,,,,,,,772,82,poldrack-categorize,435,605044,0.0-433.0,f1f70f72-9867-4424-8914-65578cc8c0a8,,1500,250,stim,,"<div class = centerbox><div class = stroop-stim style = ""color:red"">GREEN</div></div>","66,71,82",1500,practice,,,incongruent,TRUE,82,,,500,red,green,-1,-1,poldrack-single-stim,436,605805,0.0-434.0,f1f70f72-9867-4424-8914-65578cc8c0a8,,500,500,fixation,,<div class = centerbox><div class = fixation>+</div></div>,none,500,practice,,,,,,,,,,,867,71,poldrack-categorize,437,608318,0.0-435.0,f1f70f72-9867-4424-8914-65578cc8c0a8,,1500,250,stim,,"<div class = centerbox><div class = stroop-stim style = ""color:green"">RED</div></div>","66,71,82",1500,practice,,,incongruent,TRUE,71,,,500,green,red,-1,-1,poldrack-single-stim,438,609078,0.0-436.0,f1f70f72-9867-4424-8914-65578cc8c0a8,,500,500,fixation,,<div class = centerbox><div class = fixation>+</div></div>,none,500,practice,,,,,,,,,,,825,82,poldrack-categorize,439,611588,0.0-437.0,f1f70f72-9867-4424-8914-65578cc8c0a8,,1500,250,stim,,"<div class = centerbox><div class = stroop-stim style = ""color:red"">RED</div></div>","66,71,82",1500,practice,,,congruent,TRUE,82,,,500,red,red,3295,13,poldrack-text,440,615136,0.0-439.0,f1f70f72-9867-4424-8914-65578cc8c0a8,<div class = centerbox><p class = center-block-text>We will now start the test. Respond exactly like you did during practice.</p><p class = center-block-text>Press <strong>enter</strong> to begin the test.</p></div>,3295,1000,test_intro,,,,,,,,,,,,,,,,-1,-1,poldrack-single-stim,441,616642,0.0-440.0,f1f70f72-9867-4424-8914-65578cc8c0a8,,500,500,fixation,,<div class = centerbox><div class = fixation>+</div></div>,none,500,test,,,,,,,,,,,781,71,poldrack-categorize,442,619155,0.0-441.0,f1f70f72-9867-4424-8914-65578cc8c0a8,,1500,250,stim,,"<div class = centerbox><div class = stroop-stim style = ""color:green"">GREEN</div></div>","66,71,82",1500,test,,,congruent,TRUE,71,,,500,green,green,-1,-1,poldrack-single-stim,443,619917,0.0-442.0,f1f70f72-9867-4424-8914-65578cc8c0a8,,500,500,fixation,,<div class = centerbox><div class = fixation>+</div></div>,none,500,test,,,,,,,,,,,876,66,poldrack-categorize,444,622429,0.0-443.0,f1f70f72-9867-4424-8914-65578cc8c0a8,,1500,250,stim,,"<div class = centerbox><div class = stroop-stim style = ""color:blue"">BLUE</div></div>","66,71,82",1500,test,,,congruent,TRUE,66,,,500,blue,blue,-1,-1,poldrack-single-stim,445,623187,0.0-444.0,f1f70f72-9867-4424-8914-65578cc8c0a8,,500,500,fixation,,<div class = centerbox><div class = fixation>+</div></div>,none,500,test,,,,,,,,,,,691,82,poldrack-categorize,446,625697,0.0-445.0,f1f70f72-9867-4424-8914-65578cc8c0a8,,1500,250,stim,,"<div class = centerbox><div class = stroop-stim style = ""color:red"">RED</div></div>","66,71,82",1500,test,,,congruent,TRUE,82,,,500,red,red,-1,-1,poldrack-single-stim,447,626457,0.0-446.0,f1f70f72-9867-4424-8914-65578cc8c0a8,,500,500,fixation,,<div class = centerbox><div class = fixation>+</div></div>,none,500,test,,,,,,,,,,,933,66,poldrack-categorize,448,628971,0.0-447.0,f1f70f72-9867-4424-8914-65578cc8c0a8,,1500,250,stim,,"<div class = centerbox><div class = stroop-stim style = ""color:blue"">GREEN</div></div>","66,71,82",1500,test,,,incongruent,TRUE,66,,,500,blue,green,-1,-1,poldrack-single-stim,449,629731,0.0-448.0,f1f70f72-9867-4424-8914-65578cc8c0a8,,500,500,fixation,,<div class = centerbox><div class = fixation>+</div></div>,none,500,test,,,,,,,,,,,628,71,poldrack-categorize,450,632244,0.0-449.0,f1f70f72-9867-4424-8914-65578cc8c0a8,,1500,250,stim,,"<div class = centerbox><div class = stroop-stim style = ""color:green"">GREEN</div></div>","66,71,82",1500,test,,,congruent,TRUE,71,,,500,green,green,-1,-1,poldrack-single-stim,451,633002,0.0-450.0,f1f70f72-9867-4424-8914-65578cc8c0a8,,500,500,fixation,,<div class = centerbox><div class = fixation>+</div></div>,none,500,test,,,,,,,,,,,807,66,poldrack-categorize,452,635512,0.0-451.0,f1f70f72-9867-4424-8914-65578cc8c0a8,,1500,250,stim,,"<div class = centerbox><div class = stroop-stim style = ""color:blue"">GREEN</div></div>","66,71,82",1500,test,,,incongruent,TRUE,66,,,500,blue,green,-1,-1,poldrack-single-stim,453,636273,0.0-452.0,f1f70f72-9867-4424-8914-65578cc8c0a8,,500,500,fixation,,<div class = centerbox><div class = fixation>+</div></div>,none,500,test,,,,,,,,,,,766,82,poldrack-categorize,454,638784,0.0-453.0,f1f70f72-9867-4424-8914-65578cc8c0a8,,1500,250,stim,,"<div class = centerbox><div class = stroop-stim style = ""color:red"">RED</div></div>","66,71,82",1500,test,,,congruent,TRUE,82,,,500,red,red,-1,-1,poldrack-single-stim,455,639540,0.0-454.0,f1f70f72-9867-4424-8914-65578cc8c0a8,,500,500,fixation,,<div class = centerbox><div class = fixation>+</div></div>,none,500,test,,,,,,,,,,,1099,66,poldrack-categorize,456,642048,0.0-455.0,f1f70f72-9867-4424-8914-65578cc8c0a8,,1500,250,stim,,"<div class = centerbox><div class = stroop-stim style = ""color:blue"">RED</div></div>","66,71,82",1500,test,,,incongruent,TRUE,66,,,500,blue,red,-1,-1,poldrack-single-stim,457,642803,0.0-456.0,f1f70f72-9867-4424-8914-65578cc8c0a8,,500,500,fixation,,<div class = centerbox><div class = fixation>+</div></div>,none,500,test,,,,,,,,,,,730,66,poldrack-categorize,458,645312,0.0-457.0,f1f70f72-9867-4424-8914-65578cc8c0a8,,1500,250,stim,,"<div class = centerbox><div class = stroop-stim style = ""color:blue"">RED</div></div>","66,71,82",1500,test,,,incongruent,TRUE,66,,,500,blue,red,-1,-1,poldrack-single-stim,459,646071,0.0-458.0,f1f70f72-9867-4424-8914-65578cc8c0a8,,500,500,fixation,,<div class = centerbox><div class = fixation>+</div></div>,none,500,test,,,,,,,,,,,677,66,poldrack-categorize,460,648584,0.0-459.0,f1f70f72-9867-4424-8914-65578cc8c0a8,,1500,250,stim,,"<div class = centerbox><div class = stroop-stim style = ""color:blue"">GREEN</div></div>","66,71,82",1500,test,,,incongruent,TRUE,66,,,500,blue,green,-1,-1,poldrack-single-stim,461,649342,0.0-460.0,f1f70f72-9867-4424-8914-65578cc8c0a8,,500,500,fixation,,<div class = centerbox><div class = fixation>+</div></div>,none,500,test,,,,,,,,,,,633,66,poldrack-categorize,462,651852,0.0-461.0,f1f70f72-9867-4424-8914-65578cc8c0a8,,1500,250,stim,,"<div class = centerbox><div class = stroop-stim style = ""color:blue"">RED</div></div>","66,71,82",1500,test,,,incongruent,TRUE,66,,,500,blue,red,-1,-1,poldrack-single-stim,463,652613,0.0-462.0,f1f70f72-9867-4424-8914-65578cc8c0a8,,500,500,fixation,,<div class = centerbox><div class = fixation>+</div></div>,none,500,test,,,,,,,,,,,967,82,poldrack-categorize,464,655126,0.0-463.0,f1f70f72-9867-4424-8914-65578cc8c0a8,,1500,250,stim,,"<div class = centerbox><div class = stroop-stim style = ""color:red"">RED</div></div>","66,71,82",1500,test,,,congruent,TRUE,82,,,500,red,red,-1,-1,poldrack-single-stim,465,655886,0.0-464.0,f1f70f72-9867-4424-8914-65578cc8c0a8,,500,500,fixation,,<div class = centerbox><div class = fixation>+</div></div>,none,500,test,,,,,,,,,,,774,66,poldrack-categorize,466,658399,0.0-465.0,f1f70f72-9867-4424-8914-65578cc8c0a8,,1500,250,stim,,"<div class = centerbox><div class = stroop-stim style = ""color:blue"">GREEN</div></div>","66,71,82",1500,test,,,incongruent,TRUE,66,,,500,blue,green,-1,-1,poldrack-single-stim,467,659154,0.0-466.0,f1f70f72-9867-4424-8914-65578cc8c0a8,,500,500,fixation,,<div class = centerbox><div class = fixation>+</div></div>,none,500,test,,,,,,,,,,,650,71,poldrack-categorize,468,661668,0.0-467.0,f1f70f72-9867-4424-8914-65578cc8c0a8,,1500,250,stim,,"<div class = centerbox><div class = stroop-stim style = ""color:green"">GREEN</div></div>","66,71,82",1500,test,,,congruent,TRUE,71,,,500,green,green,-1,-1,poldrack-single-stim,469,662428,0.0-468.0,f1f70f72-9867-4424-8914-65578cc8c0a8,,500,500,fixation,,<div class = centerbox><div class = fixation>+</div></div>,none,500,test,,,,,,,,,,,713,66,poldrack-categorize,470,664941,0.0-469.0,f1f70f72-9867-4424-8914-65578cc8c0a8,,1500,250,stim,,"<div class = centerbox><div class = stroop-stim style = ""color:blue"">BLUE</div></div>","66,71,82",1500,test,,,congruent,TRUE,66,,,500,blue,blue,-1,-1,poldrack-single-stim,471,665701,0.0-470.0,f1f70f72-9867-4424-8914-65578cc8c0a8,,500,500,fixation,,<div class = centerbox><div class = fixation>+</div></div>,none,500,test,,,,,,,,,,,774,71,poldrack-categorize,472,668215,0.0-471.0,f1f70f72-9867-4424-8914-65578cc8c0a8,,1500,250,stim,,"<div class = centerbox><div class = stroop-stim style = ""color:green"">GREEN</div></div>","66,71,82",1500,test,,,congruent,TRUE,71,,,500,green,green,-1,-1,poldrack-single-stim,473,668976,0.0-472.0,f1f70f72-9867-4424-8914-65578cc8c0a8,,500,500,fixation,,<div class = centerbox><div class = fixation>+</div></div>,none,500,test,,,,,,,,,,,669,71,poldrack-categorize,474,671483,0.0-473.0,f1f70f72-9867-4424-8914-65578cc8c0a8,,1500,250,stim,,"<div class = centerbox><div class = stroop-stim style = ""color:green"">GREEN</div></div>","66,71,82",1500,test,,,congruent,TRUE,71,,,500,green,green,-1,-1,poldrack-single-stim,475,672244,0.0-474.0,f1f70f72-9867-4424-8914-65578cc8c0a8,,500,500,fixation,,<div class = centerbox><div class = fixation>+</div></div>,none,500,test,,,,,,,,,,,479,82,poldrack-categorize,476,674757,0.0-475.0,f1f70f72-9867-4424-8914-65578cc8c0a8,,1500,250,stim,,"<div class = centerbox><div class = stroop-stim style = ""color:red"">RED</div></div>","66,71,82",1500,test,,,congruent,TRUE,82,,,500,red,red,-1,-1,poldrack-single-stim,477,675517,0.0-476.0,f1f70f72-9867-4424-8914-65578cc8c0a8,,500,500,fixation,,<div class = centerbox><div class = fixation>+</div></div>,none,500,test,,,,,,,,,,,838,71,poldrack-categorize,478,678031,0.0-477.0,f1f70f72-9867-4424-8914-65578cc8c0a8,,1500,250,stim,,"<div class = centerbox><div class = stroop-stim style = ""color:green"">BLUE</div></div>","66,71,82",1500,test,,,incongruent,TRUE,71,,,500,green,blue,-1,-1,poldrack-single-stim,479,678791,0.0-478.0,f1f70f72-9867-4424-8914-65578cc8c0a8,,500,500,fixation,,<div class = centerbox><div class = fixation>+</div></div>,none,500,test,,,,,,,,,,,844,71,poldrack-categorize,480,681299,0.0-479.0,f1f70f72-9867-4424-8914-65578cc8c0a8,,1500,250,stim,,"<div class = centerbox><div class = stroop-stim style = ""color:green"">RED</div></div>","66,71,82",1500,test,,,incongruent,TRUE,71,,,500,green,red,-1,-1,poldrack-single-stim,481,682059,0.0-480.0,f1f70f72-9867-4424-8914-65578cc8c0a8,,500,500,fixation,,<div class = centerbox><div class = fixation>+</div></div>,none,500,test,,,,,,,,,,,799,71,poldrack-categorize,482,684572,0.0-481.0,f1f70f72-9867-4424-8914-65578cc8c0a8,,1500,250,stim,,"<div class = centerbox><div class = stroop-stim style = ""color:green"">GREEN</div></div>","66,71,82",1500,test,,,congruent,TRUE,71,,,500,green,green,-1,-1,poldrack-single-stim,483,685331,0.0-482.0,f1f70f72-9867-4424-8914-65578cc8c0a8,,500,500,fixation,,<div class = centerbox><div class = fixation>+</div></div>,none,500,test,,,,,,,,,,,794,66,poldrack-categorize,484,687840,0.0-483.0,f1f70f72-9867-4424-8914-65578cc8c0a8,,1500,250,stim,,"<div class = centerbox><div class = stroop-stim style = ""color:blue"">GREEN</div></div>","66,71,82",1500,test,,,incongruent,TRUE,66,,,500,blue,green,-1,-1,poldrack-single-stim,485,688601,0.0-484.0,f1f70f72-9867-4424-8914-65578cc8c0a8,,500,500,fixation,,<div class = centerbox><div class = fixation>+</div></div>,none,500,test,,,,,,,,,,,746,71,poldrack-categorize,486,691114,0.0-485.0,f1f70f72-9867-4424-8914-65578cc8c0a8,,1500,250,stim,,"<div class = centerbox><div class = stroop-stim style = ""color:green"">RED</div></div>","66,71,82",1500,test,,,incongruent,TRUE,71,,,500,green,red,-1,-1,poldrack-single-stim,487,691875,0.0-486.0,f1f70f72-9867-4424-8914-65578cc8c0a8,,500,500,fixation,,<div class = centerbox><div class = fixation>+</div></div>,none,500,test,,,,,,,,,,,816,66,poldrack-categorize,488,694388,0.0-487.0,f1f70f72-9867-4424-8914-65578cc8c0a8,,1500,250,stim,,"<div class = centerbox><div class = stroop-stim style = ""color:blue"">RED</div></div>","66,71,82",1500,test,,,incongruent,TRUE,66,,,500,blue,red,-1,-1,poldrack-single-stim,489,695148,0.0-488.0,f1f70f72-9867-4424-8914-65578cc8c0a8,,500,500,fixation,,<div class = centerbox><div class = fixation>+</div></div>,none,500,test,,,,,,,,,,,724,71,poldrack-categorize,490,697662,0.0-489.0,f1f70f72-9867-4424-8914-65578cc8c0a8,,1500,250,stim,,"<div class = centerbox><div class = stroop-stim style = ""color:green"">GREEN</div></div>","66,71,82",1500,test,,,congruent,TRUE,71,,,500,green,green,-1,-1,poldrack-single-stim,491,698416,0.0-490.0,f1f70f72-9867-4424-8914-65578cc8c0a8,,500,500,fixation,,<div class = centerbox><div class = fixation>+</div></div>,none,500,test,,,,,,,,,,,1072,66,poldrack-categorize,492,700930,0.0-491.0,f1f70f72-9867-4424-8914-65578cc8c0a8,,1500,250,stim,,"<div class = centerbox><div class = stroop-stim style = ""color:green"">GREEN</div></div>","66,71,82",1500,test,,,congruent,FALSE,71,,,500,green,green,-1,-1,poldrack-single-stim,493,701690,0.0-492.0,f1f70f72-9867-4424-8914-65578cc8c0a8,,500,500,fixation,,<div class = centerbox><div class = fixation>+</div></div>,none,500,test,,,,,,,,,,,-1,-1,poldrack-categorize,494,704200,0.0-493.0,f1f70f72-9867-4424-8914-65578cc8c0a8,,1500,250,stim,,"<div class = centerbox><div class = stroop-stim style = ""color:red"">BLUE</div></div>","66,71,82",1500,test,,,incongruent,FALSE,82,,,500,red,blue,-1,-1,poldrack-single-stim,495,704958,0.0-494.0,f1f70f72-9867-4424-8914-65578cc8c0a8,,500,500,fixation,,<div class = centerbox><div class = fixation>+</div></div>,none,500,test,,,,,,,,,,,730,82,poldrack-categorize,496,707471,0.0-495.0,f1f70f72-9867-4424-8914-65578cc8c0a8,,1500,250,stim,,"<div class = centerbox><div class = stroop-stim style = ""color:red"">BLUE</div></div>","66,71,82",1500,test,,,incongruent,TRUE,82,,,500,red,blue,-1,-1,poldrack-single-stim,497,708232,0.0-496.0,f1f70f72-9867-4424-8914-65578cc8c0a8,,500,500,fixation,,<div class = centerbox><div class = fixation>+</div></div>,none,500,test,,,,,,,,,,,866,71,poldrack-categorize,498,710745,0.0-497.0,f1f70f72-9867-4424-8914-65578cc8c0a8,,1500,250,stim,,"<div class = centerbox><div class = stroop-stim style = ""color:green"">RED</div></div>","66,71,82",1500,test,,,incongruent,TRUE,71,,,500,green,red,-1,-1,poldrack-single-stim,499,711506,0.0-498.0,f1f70f72-9867-4424-8914-65578cc8c0a8,,500,500,fixation,,<div class = centerbox><div class = fixation>+</div></div>,none,500,test,,,,,,,,,,,1271,66,poldrack-categorize,500,714019,0.0-499.0,f1f70f72-9867-4424-8914-65578cc8c0a8,,1500,250,stim,,"<div class = centerbox><div class = stroop-stim style = ""color:blue"">BLUE</div></div>","66,71,82",1500,test,,,congruent,TRUE,66,,,500,blue,blue,-1,-1,poldrack-single-stim,501,714779,0.0-500.0,f1f70f72-9867-4424-8914-65578cc8c0a8,,500,500,fixation,,<div class = centerbox><div class = fixation>+</div></div>,none,500,test,,,,,,,,,,,702,82,poldrack-categorize,502,717287,0.0-501.0,f1f70f72-9867-4424-8914-65578cc8c0a8,,1500,250,stim,,"<div class = centerbox><div class = stroop-stim style = ""color:red"">RED</div></div>","66,71,82",1500,test,,,congruent,TRUE,82,,,500,red,red,-1,-1,poldrack-single-stim,503,718047,0.0-502.0,f1f70f72-9867-4424-8914-65578cc8c0a8,,500,500,fixation,,<div class = centerbox><div class = fixation>+</div></div>,none,500,test,,,,,,,,,,,784,82,poldrack-categorize,504,720561,0.0-503.0,f1f70f72-9867-4424-8914-65578cc8c0a8,,1500,250,stim,,"<div class = centerbox><div class = stroop-stim style = ""color:red"">GREEN</div></div>","66,71,82",1500,test,,,incongruent,TRUE,82,,,500,red,green,-1,-1,poldrack-single-stim,505,721317,0.0-504.0,f1f70f72-9867-4424-8914-65578cc8c0a8,,500,500,fixation,,<div class = centerbox><div class = fixation>+</div></div>,none,500,test,,,,,,,,,,,940,71,poldrack-categorize,506,723825,0.0-505.0,f1f70f72-9867-4424-8914-65578cc8c0a8,,1500,250,stim,,"<div class = centerbox><div class = stroop-stim style = ""color:green"">GREEN</div></div>","66,71,82",1500,test,,,congruent,TRUE,71,,,500,green,green,-1,-1,poldrack-single-stim,507,724583,0.0-506.0,f1f70f72-9867-4424-8914-65578cc8c0a8,,500,500,fixation,,<div class = centerbox><div class = fixation>+</div></div>,none,500,test,,,,,,,,,,,751,71,poldrack-categorize,508,727096,0.0-507.0,f1f70f72-9867-4424-8914-65578cc8c0a8,,1500,250,stim,,"<div class = centerbox><div class = stroop-stim style = ""color:green"">RED</div></div>","66,71,82",1500,test,,,incongruent,TRUE,71,,,500,green,red,-1,-1,poldrack-single-stim,509,727857,0.0-508.0,f1f70f72-9867-4424-8914-65578cc8c0a8,,500,500,fixation,,<div class = centerbox><div class = fixation>+</div></div>,none,500,test,,,,,,,,,,,1176,66,poldrack-categorize,510,730364,0.0-509.0,f1f70f72-9867-4424-8914-65578cc8c0a8,,1500,250,stim,,"<div class = centerbox><div class = stroop-stim style = ""color:blue"">BLUE</div></div>","66,71,82",1500,test,,,congruent,TRUE,66,,,500,blue,blue,-1,-1,poldrack-single-stim,511,731124,0.0-510.0,f1f70f72-9867-4424-8914-65578cc8c0a8,,500,500,fixation,,<div class = centerbox><div class = fixation>+</div></div>,none,500,test,,,,,,,,,,,611,66,poldrack-categorize,512,733636,0.0-511.0,f1f70f72-9867-4424-8914-65578cc8c0a8,,1500,250,stim,,"<div class = centerbox><div class = stroop-stim style = ""color:blue"">RED</div></div>","66,71,82",1500,test,,,incongruent,TRUE,66,,,500,blue,red,-1,-1,poldrack-single-stim,513,734390,0.0-512.0,f1f70f72-9867-4424-8914-65578cc8c0a8,,500,500,fixation,,<div class = centerbox><div class = fixation>+</div></div>,none,500,test,,,,,,,,,,,800,82,poldrack-categorize,514,736900,0.0-513.0,f1f70f72-9867-4424-8914-65578cc8c0a8,,1500,250,stim,,"<div class = centerbox><div class = stroop-stim style = ""color:red"">RED</div></div>","66,71,82",1500,test,,,congruent,TRUE,82,,,500,red,red,-1,-1,poldrack-single-stim,515,737661,0.0-514.0,f1f70f72-9867-4424-8914-65578cc8c0a8,,500,500,fixation,,<div class = centerbox><div class = fixation>+</div></div>,none,500,test,,,,,,,,,,,617,82,poldrack-categorize,516,740174,0.0-515.0,f1f70f72-9867-4424-8914-65578cc8c0a8,,1500,250,stim,,"<div class = centerbox><div class = stroop-stim style = ""color:red"">RED</div></div>","66,71,82",1500,test,,,congruent,TRUE,82,,,500,red,red,-1,-1,poldrack-single-stim,517,740935,0.0-516.0,f1f70f72-9867-4424-8914-65578cc8c0a8,,500,500,fixation,,<div class = centerbox><div class = fixation>+</div></div>,none,500,test,,,,,,,,,,,727,71,poldrack-categorize,518,743446,0.0-517.0,f1f70f72-9867-4424-8914-65578cc8c0a8,,1500,250,stim,,"<div class = centerbox><div class = stroop-stim style = ""color:green"">BLUE</div></div>","66,71,82",1500,test,,,incongruent,TRUE,71,,,500,green,blue,-1,-1,poldrack-single-stim,519,744203,0.0-518.0,f1f70f72-9867-4424-8914-65578cc8c0a8,,500,500,fixation,,<div class = centerbox><div class = fixation>+</div></div>,none,500,test,,,,,,,,,,,835,82,poldrack-categorize,520,746712,0.0-519.0,f1f70f72-9867-4424-8914-65578cc8c0a8,,1500,250,stim,,"<div class = centerbox><div class = stroop-stim style = ""color:red"">RED</div></div>","66,71,82",1500,test,,,congruent,TRUE,82,,,500,red,red,-1,-1,poldrack-single-stim,521,747471,0.0-520.0,f1f70f72-9867-4424-8914-65578cc8c0a8,,500,500,fixation,,<div class = centerbox><div class = fixation>+</div></div>,none,500,test,,,,,,,,,,,783,71,poldrack-categorize,522,749984,0.0-521.0,f1f70f72-9867-4424-8914-65578cc8c0a8,,1500,250,stim,,"<div class = centerbox><div class = stroop-stim style = ""color:green"">GREEN</div></div>","66,71,82",1500,test,,,congruent,TRUE,71,,,500,green,green,-1,-1,poldrack-single-stim,523,750741,0.0-522.0,f1f70f72-9867-4424-8914-65578cc8c0a8,,500,500,fixation,,<div class = centerbox><div class = fixation>+</div></div>,none,500,test,,,,,,,,,,,819,82,poldrack-categorize,524,753249,0.0-523.0,f1f70f72-9867-4424-8914-65578cc8c0a8,,1500,250,stim,,"<div class = centerbox><div class = stroop-stim style = ""color:red"">RED</div></div>","66,71,82",1500,test,,,congruent,TRUE,82,,,500,red,red,-1,-1,poldrack-single-stim,525,754007,0.0-524.0,f1f70f72-9867-4424-8914-65578cc8c0a8,,500,500,fixation,,<div class = centerbox><div class = fixation>+</div></div>,none,500,test,,,,,,,,,,,806,71,poldrack-categorize,526,756520,0.0-525.0,f1f70f72-9867-4424-8914-65578cc8c0a8,,1500,250,stim,,"<div class = centerbox><div class = stroop-stim style = ""color:green"">RED</div></div>","66,71,82",1500,test,,,incongruent,TRUE,71,,,500,green,red,-1,-1,poldrack-single-stim,527,757280,0.0-526.0,f1f70f72-9867-4424-8914-65578cc8c0a8,,500,500,fixation,,<div class = centerbox><div class = fixation>+</div></div>,none,500,test,,,,,,,,,,,1140,66,poldrack-categorize,528,759794,0.0-527.0,f1f70f72-9867-4424-8914-65578cc8c0a8,,1500,250,stim,,"<div class = centerbox><div class = stroop-stim style = ""color:blue"">BLUE</div></div>","66,71,82",1500,test,,,congruent,TRUE,66,,,500,blue,blue,-1,-1,poldrack-single-stim,529,760553,0.0-528.0,f1f70f72-9867-4424-8914-65578cc8c0a8,,500,500,fixation,,<div class = centerbox><div class = fixation>+</div></div>,none,500,test,,,,,,,,,,,1370,71,poldrack-categorize,530,763067,0.0-529.0,f1f70f72-9867-4424-8914-65578cc8c0a8,,1500,250,stim,,"<div class = centerbox><div class = stroop-stim style = ""color:green"">RED</div></div>","66,71,82",1500,test,,,incongruent,TRUE,71,,,500,green,red,-1,-1,poldrack-single-stim,531,763828,0.0-530.0,f1f70f72-9867-4424-8914-65578cc8c0a8,,500,500,fixation,,<div class = centerbox><div class = fixation>+</div></div>,none,500,test,,,,,,,,,,,745,82,poldrack-categorize,532,766335,0.0-531.0,f1f70f72-9867-4424-8914-65578cc8c0a8,,1500,250,stim,,"<div class = centerbox><div class = stroop-stim style = ""color:red"">GREEN</div></div>","66,71,82",1500,test,,,incongruent,TRUE,82,,,500,red,green,-1,-1,poldrack-single-stim,533,767096,0.0-532.0,f1f70f72-9867-4424-8914-65578cc8c0a8,,500,500,fixation,,<div class = centerbox><div class = fixation>+</div></div>,none,500,test,,,,,,,,,,,731,66,poldrack-categorize,534,769609,0.0-533.0,f1f70f72-9867-4424-8914-65578cc8c0a8,,1500,250,stim,,"<div class = centerbox><div class = stroop-stim style = ""color:blue"">BLUE</div></div>","66,71,82",1500,test,,,congruent,TRUE,66,,,500,blue,blue,-1,-1,poldrack-single-stim,535,770370,0.0-534.0,f1f70f72-9867-4424-8914-65578cc8c0a8,,500,500,fixation,,<div class = centerbox><div class = fixation>+</div></div>,none,500,test,,,,,,,,,,,900,71,poldrack-categorize,536,772883,0.0-535.0,f1f70f72-9867-4424-8914-65578cc8c0a8,,1500,250,stim,,"<div class = centerbox><div class = stroop-stim style = ""color:green"">GREEN</div></div>","66,71,82",1500,test,,,congruent,TRUE,71,,,500,green,green,-1,-1,poldrack-single-stim,537,773638,0.0-536.0,f1f70f72-9867-4424-8914-65578cc8c0a8,,500,500,fixation,,<div class = centerbox><div class = fixation>+</div></div>,none,500,test,,,,,,,,,,,1126,82,poldrack-categorize,538,776151,0.0-537.0,f1f70f72-9867-4424-8914-65578cc8c0a8,,1500,250,stim,,"<div class = centerbox><div class = stroop-stim style = ""color:red"">BLUE</div></div>","66,71,82",1500,test,,,incongruent,TRUE,82,,,500,red,blue,-1,-1,poldrack-single-stim,539,776911,0.0-538.0,f1f70f72-9867-4424-8914-65578cc8c0a8,,500,500,fixation,,<div class = centerbox><div class = fixation>+</div></div>,none,500,test,,,,,,,,,,,941,71,poldrack-categorize,540,779425,0.0-539.0,f1f70f72-9867-4424-8914-65578cc8c0a8,,1500,250,stim,,"<div class = centerbox><div class = stroop-stim style = ""color:green"">GREEN</div></div>","66,71,82",1500,test,,,congruent,TRUE,71,,,500,green,green,-1,-1,poldrack-single-stim,541,780185,0.0-540.0,f1f70f72-9867-4424-8914-65578cc8c0a8,,500,500,fixation,,<div class = centerbox><div class = fixation>+</div></div>,none,500,test,,,,,,,,,,,643,66,poldrack-categorize,542,782695,0.0-541.0,f1f70f72-9867-4424-8914-65578cc8c0a8,,1500,250,stim,,"<div class = centerbox><div class = stroop-stim style = ""color:blue"">BLUE</div></div>","66,71,82",1500,test,,,congruent,TRUE,66,,,500,blue,blue,-1,-1,poldrack-single-stim,543,783453,0.0-542.0,f1f70f72-9867-4424-8914-65578cc8c0a8,,500,500,fixation,,<div class = centerbox><div class = fixation>+</div></div>,none,500,test,,,,,,,,,,,709,71,poldrack-categorize,544,785966,0.0-543.0,f1f70f72-9867-4424-8914-65578cc8c0a8,,1500,250,stim,,"<div class = centerbox><div class = stroop-stim style = ""color:green"">GREEN</div></div>","66,71,82",1500,test,,,congruent,TRUE,71,,,500,green,green,-1,-1,poldrack-single-stim,545,786721,0.0-544.0,f1f70f72-9867-4424-8914-65578cc8c0a8,,500,500,fixation,,<div class = centerbox><div class = fixation>+</div></div>,none,500,test,,,,,,,,,,,680,82,poldrack-categorize,546,789233,0.0-545.0,f1f70f72-9867-4424-8914-65578cc8c0a8,,1500,250,stim,,"<div class = centerbox><div class = stroop-stim style = ""color:red"">RED</div></div>","66,71,82",1500,test,,,congruent,TRUE,82,,,500,red,red,-1,-1,poldrack-single-stim,547,789989,0.0-546.0,f1f70f72-9867-4424-8914-65578cc8c0a8,,500,500,fixation,,<div class = centerbox><div class = fixation>+</div></div>,none,500,test,,,,,,,,,,,716,82,poldrack-categorize,548,792502,0.0-547.0,f1f70f72-9867-4424-8914-65578cc8c0a8,,1500,250,stim,,"<div class = centerbox><div class = stroop-stim style = ""color:red"">RED</div></div>","66,71,82",1500,test,,,congruent,TRUE,82,,,500,red,red,-1,-1,poldrack-single-stim,549,793263,0.0-548.0,f1f70f72-9867-4424-8914-65578cc8c0a8,,500,500,fixation,,<div class = centerbox><div class = fixation>+</div></div>,none,500,test,,,,,,,,,,,676,66,poldrack-categorize,550,795776,0.0-549.0,f1f70f72-9867-4424-8914-65578cc8c0a8,,1500,250,stim,,"<div class = centerbox><div class = stroop-stim style = ""color:blue"">GREEN</div></div>","66,71,82",1500,test,,,incongruent,TRUE,66,,,500,blue,green,-1,-1,poldrack-single-stim,551,796537,0.0-550.0,f1f70f72-9867-4424-8914-65578cc8c0a8,,500,500,fixation,,<div class = centerbox><div class = fixation>+</div></div>,none,500,test,,,,,,,,,,,843,71,poldrack-categorize,552,799044,0.0-551.0,f1f70f72-9867-4424-8914-65578cc8c0a8,,1500,250,stim,,"<div class = centerbox><div class = stroop-stim style = ""color:green"">BLUE</div></div>","66,71,82",1500,test,,,incongruent,TRUE,71,,,500,green,blue,-1,-1,poldrack-single-stim,553,799804,0.0-552.0,f1f70f72-9867-4424-8914-65578cc8c0a8,,500,500,fixation,,<div class = centerbox><div class = fixation>+</div></div>,none,500,test,,,,,,,,,,,852,82,poldrack-categorize,554,802311,0.0-553.0,f1f70f72-9867-4424-8914-65578cc8c0a8,,1500,250,stim,,"<div class = centerbox><div class = stroop-stim style = ""color:red"">GREEN</div></div>","66,71,82",1500,test,,,incongruent,TRUE,82,,,500,red,green,-1,-1,poldrack-single-stim,555,803072,0.0-554.0,f1f70f72-9867-4424-8914-65578cc8c0a8,,500,500,fixation,,<div class = centerbox><div class = fixation>+</div></div>,none,500,test,,,,,,,,,,,720,66,poldrack-categorize,556,805585,0.0-555.0,f1f70f72-9867-4424-8914-65578cc8c0a8,,1500,250,stim,,"<div class = centerbox><div class = stroop-stim style = ""color:blue"">RED</div></div>","66,71,82",1500,test,,,incongruent,TRUE,66,,,500,blue,red,-1,-1,poldrack-single-stim,557,806341,0.0-556.0,f1f70f72-9867-4424-8914-65578cc8c0a8,,500,500,fixation,,<div class = centerbox><div class = fixation>+</div></div>,none,500,test,,,,,,,,,,,500,71,poldrack-categorize,558,808853,0.0-557.0,f1f70f72-9867-4424-8914-65578cc8c0a8,,1500,250,stim,,"<div class = centerbox><div class = stroop-stim style = ""color:green"">GREEN</div></div>","66,71,82",1500,test,,,congruent,TRUE,71,,,500,green,green,-1,-1,poldrack-single-stim,559,809613,0.0-558.0,f1f70f72-9867-4424-8914-65578cc8c0a8,,500,500,fixation,,<div class = centerbox><div class = fixation>+</div></div>,none,500,test,,,,,,,,,,,828,82,poldrack-categorize,560,812126,0.0-559.0,f1f70f72-9867-4424-8914-65578cc8c0a8,,1500,250,stim,,"<div class = centerbox><div class = stroop-stim style = ""color:red"">BLUE</div></div>","66,71,82",1500,test,,,incongruent,TRUE,82,,,500,red,blue,-1,-1,poldrack-single-stim,561,812887,0.0-560.0,f1f70f72-9867-4424-8914-65578cc8c0a8,,500,500,fixation,,<div class = centerbox><div class = fixation>+</div></div>,none,500,test,,,,,,,,,,,682,71,poldrack-categorize,562,815394,0.0-561.0,f1f70f72-9867-4424-8914-65578cc8c0a8,,1500,250,stim,,"<div class = centerbox><div class = stroop-stim style = ""color:green"">BLUE</div></div>","66,71,82",1500,test,,,incongruent,TRUE,71,,,500,green,blue,-1,-1,poldrack-single-stim,563,816152,0.0-562.0,f1f70f72-9867-4424-8914-65578cc8c0a8,,500,500,fixation,,<div class = centerbox><div class = fixation>+</div></div>,none,500,test,,,,,,,,,,,753,66,poldrack-categorize,564,818662,0.0-563.0,f1f70f72-9867-4424-8914-65578cc8c0a8,,1500,250,stim,,"<div class = centerbox><div class = stroop-stim style = ""color:blue"">BLUE</div></div>","66,71,82",1500,test,,,congruent,TRUE,66,,,500,blue,blue,-1,-1,poldrack-single-stim,565,819422,0.0-564.0,f1f70f72-9867-4424-8914-65578cc8c0a8,,500,500,fixation,,<div class = centerbox><div class = fixation>+</div></div>,none,500,test,,,,,,,,,,,1064,82,poldrack-categorize,566,821935,0.0-565.0,f1f70f72-9867-4424-8914-65578cc8c0a8,,1500,250,stim,,"<div class = centerbox><div class = stroop-stim style = ""color:red"">BLUE</div></div>","66,71,82",1500,test,,,incongruent,TRUE,82,,,500,red,blue,-1,-1,poldrack-single-stim,567,822696,0.0-566.0,f1f70f72-9867-4424-8914-65578cc8c0a8,,500,500,fixation,,<div class = centerbox><div class = fixation>+</div></div>,none,500,test,,,,,,,,,,,510,71,poldrack-categorize,568,825206,0.0-567.0,f1f70f72-9867-4424-8914-65578cc8c0a8,,1500,250,stim,,"<div class = centerbox><div class = stroop-stim style = ""color:green"">BLUE</div></div>","66,71,82",1500,test,,,incongruent,TRUE,71,,,500,green,blue,-1,-1,poldrack-single-stim,569,825964,0.0-568.0,f1f70f72-9867-4424-8914-65578cc8c0a8,,500,500,fixation,,<div class = centerbox><div class = fixation>+</div></div>,none,500,test,,,,,,,,,,,690,71,poldrack-categorize,570,828477,0.0-569.0,f1f70f72-9867-4424-8914-65578cc8c0a8,,1500,250,stim,,"<div class = centerbox><div class = stroop-stim style = ""color:green"">GREEN</div></div>","66,71,82",1500,test,,,congruent,TRUE,71,,,500,green,green,-1,-1,poldrack-single-stim,571,829231,0.0-570.0,f1f70f72-9867-4424-8914-65578cc8c0a8,,500,500,fixation,,<div class = centerbox><div class = fixation>+</div></div>,none,500,test,,,,,,,,,,,837,82,poldrack-categorize,572,831744,0.0-571.0,f1f70f72-9867-4424-8914-65578cc8c0a8,,1500,250,stim,,"<div class = centerbox><div class = stroop-stim style = ""color:red"">GREEN</div></div>","66,71,82",1500,test,,,incongruent,TRUE,82,,,500,red,green,-1,-1,poldrack-single-stim,573,832505,0.0-572.0,f1f70f72-9867-4424-8914-65578cc8c0a8,,500,500,fixation,,<div class = centerbox><div class = fixation>+</div></div>,none,500,test,,,,,,,,,,,1035,82,poldrack-categorize,574,835018,0.0-573.0,f1f70f72-9867-4424-8914-65578cc8c0a8,,1500,250,stim,,"<div class = centerbox><div class = stroop-stim style = ""color:red"">RED</div></div>","66,71,82",1500,test,,,congruent,TRUE,82,,,500,red,red,-1,-1,poldrack-single-stim,575,835779,0.0-574.0,f1f70f72-9867-4424-8914-65578cc8c0a8,,500,500,fixation,,<div class = centerbox><div class = fixation>+</div></div>,none,500,test,,,,,,,,,,,657,66,poldrack-categorize,576,838291,0.0-575.0,f1f70f72-9867-4424-8914-65578cc8c0a8,,1500,250,stim,,"<div class = centerbox><div class = stroop-stim style = ""color:blue"">BLUE</div></div>","66,71,82",1500,test,,,congruent,TRUE,66,,,500,blue,blue,-1,-1,poldrack-single-stim,577,839052,0.0-576.0,f1f70f72-9867-4424-8914-65578cc8c0a8,,500,500,fixation,,<div class = centerbox><div class = fixation>+</div></div>,none,500,test,,,,,,,,,,,849,66,poldrack-categorize,578,841565,0.0-577.0,f1f70f72-9867-4424-8914-65578cc8c0a8,,1500,250,stim,,"<div class = centerbox><div class = stroop-stim style = ""color:blue"">BLUE</div></div>","66,71,82",1500,test,,,congruent,TRUE,66,,,500,blue,blue,-1,-1,poldrack-single-stim,579,842324,0.0-578.0,f1f70f72-9867-4424-8914-65578cc8c0a8,,500,500,fixation,,<div class = centerbox><div class = fixation>+</div></div>,none,500,test,,,,,,,,,,,703,82,poldrack-categorize,580,844833,0.0-579.0,f1f70f72-9867-4424-8914-65578cc8c0a8,,1500,250,stim,,"<div class = centerbox><div class = stroop-stim style = ""color:red"">BLUE</div></div>","66,71,82",1500,test,,,incongruent,TRUE,82,,,500,red,blue,-1,-1,poldrack-single-stim,581,845591,0.0-580.0,f1f70f72-9867-4424-8914-65578cc8c0a8,,500,500,fixation,,<div class = centerbox><div class = fixation>+</div></div>,none,500,test,,,,,,,,,,,935,82,poldrack-categorize,582,848101,0.0-581.0,f1f70f72-9867-4424-8914-65578cc8c0a8,,1500,250,stim,,"<div class = centerbox><div class = stroop-stim style = ""color:red"">RED</div></div>","66,71,82",1500,test,,,congruent,TRUE,82,,,500,red,red,-1,-1,poldrack-single-stim,583,848861,0.0-582.0,f1f70f72-9867-4424-8914-65578cc8c0a8,,500,500,fixation,,<div class = centerbox><div class = fixation>+</div></div>,none,500,test,,,,,,,,,,,733,82,poldrack-categorize,584,851374,0.0-583.0,f1f70f72-9867-4424-8914-65578cc8c0a8,,1500,250,stim,,"<div class = centerbox><div class = stroop-stim style = ""color:red"">RED</div></div>","66,71,82",1500,test,,,congruent,TRUE,82,,,500,red,red,-1,-1,poldrack-single-stim,585,852135,0.0-584.0,f1f70f72-9867-4424-8914-65578cc8c0a8,,500,500,fixation,,<div class = centerbox><div class = fixation>+</div></div>,none,500,test,,,,,,,,,,,1067,66,poldrack-categorize,586,854648,0.0-585.0,f1f70f72-9867-4424-8914-65578cc8c0a8,,1500,250,stim,,"<div class = centerbox><div class = stroop-stim style = ""color:blue"">BLUE</div></div>","66,71,82",1500,test,,,congruent,TRUE,66,,,500,blue,blue,-1,-1,poldrack-single-stim,587,855404,0.0-586.0,f1f70f72-9867-4424-8914-65578cc8c0a8,,500,500,fixation,,<div class = centerbox><div class = fixation>+</div></div>,none,500,test,,,,,,,,,,,756,82,poldrack-categorize,588,857916,0.0-587.0,f1f70f72-9867-4424-8914-65578cc8c0a8,,1500,250,stim,,"<div class = centerbox><div class = stroop-stim style = ""color:red"">RED</div></div>","66,71,82",1500,test,,,congruent,TRUE,82,,,500,red,red,-1,-1,poldrack-single-stim,589,858676,0.0-588.0,f1f70f72-9867-4424-8914-65578cc8c0a8,,500,500,fixation,,<div class = centerbox><div class = fixation>+</div></div>,none,500,test,,,,,,,,,,,734,66,poldrack-categorize,590,861189,0.0-589.0,f1f70f72-9867-4424-8914-65578cc8c0a8,,1500,250,stim,,"<div class = centerbox><div class = stroop-stim style = ""color:blue"">BLUE</div></div>","66,71,82",1500,test,,,congruent,TRUE,66,,,500,blue,blue,-1,-1,poldrack-single-stim,591,861950,0.0-590.0,f1f70f72-9867-4424-8914-65578cc8c0a8,,500,500,fixation,,<div class = centerbox><div class = fixation>+</div></div>,none,500,test,,,,,,,,,,,1484,66,poldrack-categorize,592,864463,0.0-591.0,f1f70f72-9867-4424-8914-65578cc8c0a8,,1500,250,stim,,"<div class = centerbox><div class = stroop-stim style = ""color:blue"">GREEN</div></div>","66,71,82",1500,test,,,incongruent,TRUE,66,,,500,blue,green,-1,-1,poldrack-single-stim,593,865223,0.0-592.0,f1f70f72-9867-4424-8914-65578cc8c0a8,,500,500,fixation,,<div class = centerbox><div class = fixation>+</div></div>,none,500,test,,,,,,,,,,,986,71,poldrack-categorize,594,867736,0.0-593.0,f1f70f72-9867-4424-8914-65578cc8c0a8,,1500,250,stim,,"<div class = centerbox><div class = stroop-stim style = ""color:green"">RED</div></div>","66,71,82",1500,test,,,incongruent,TRUE,71,,,500,green,red,-1,-1,poldrack-single-stim,595,868496,0.0-594.0,f1f70f72-9867-4424-8914-65578cc8c0a8,,500,500,fixation,,<div class = centerbox><div class = fixation>+</div></div>,none,500,test,,,,,,,,,,,943,66,poldrack-categorize,596,871010,0.0-595.0,f1f70f72-9867-4424-8914-65578cc8c0a8,,1500,250,stim,,"<div class = centerbox><div class = stroop-stim style = ""color:blue"">BLUE</div></div>","66,71,82",1500,test,,,congruent,TRUE,66,,,500,blue,blue,-1,-1,poldrack-single-stim,597,871771,0.0-596.0,f1f70f72-9867-4424-8914-65578cc8c0a8,,500,500,fixation,,<div class = centerbox><div class = fixation>+</div></div>,none,500,test,,,,,,,,,,,950,82,poldrack-categorize,598,874284,0.0-597.0,f1f70f72-9867-4424-8914-65578cc8c0a8,,1500,250,stim,,"<div class = centerbox><div class = stroop-stim style = ""color:red"">GREEN</div></div>","66,71,82",1500,test,,,incongruent,TRUE,82,,,500,red,green,-1,-1,poldrack-single-stim,599,875044,0.0-598.0,f1f70f72-9867-4424-8914-65578cc8c0a8,,500,500,fixation,,<div class = centerbox><div class = fixation>+</div></div>,none,500,test,,,,,,,,,,,756,66,poldrack-categorize,600,877557,0.0-599.0,f1f70f72-9867-4424-8914-65578cc8c0a8,,1500,250,stim,,"<div class = centerbox><div class = stroop-stim style = ""color:blue"">RED</div></div>","66,71,82",1500,test,,,incongruent,TRUE,66,,,500,blue,red,-1,-1,poldrack-single-stim,601,878312,0.0-600.0,f1f70f72-9867-4424-8914-65578cc8c0a8,,500,500,fixation,,<div class = centerbox><div class = fixation>+</div></div>,none,500,test,,,,,,,,,,,838,66,poldrack-categorize,602,880821,0.0-601.0,f1f70f72-9867-4424-8914-65578cc8c0a8,,1500,250,stim,,"<div class = centerbox><div class = stroop-stim style = ""color:blue"">GREEN</div></div>","66,71,82",1500,test,,,incongruent,TRUE,66,,,500,blue,green,-1,-1,poldrack-single-stim,603,881580,0.0-602.0,f1f70f72-9867-4424-8914-65578cc8c0a8,,500,500,fixation,,<div class = centerbox><div class = fixation>+</div></div>,none,500,test,,,,,,,,,,,1170,71,poldrack-categorize,604,884093,0.0-603.0,f1f70f72-9867-4424-8914-65578cc8c0a8,,1500,250,stim,,"<div class = centerbox><div class = stroop-stim style = ""color:green"">BLUE</div></div>","66,71,82",1500,test,,,incongruent,TRUE,71,,,500,green,blue,-1,-1,poldrack-single-stim,605,884853,0.0-604.0,f1f70f72-9867-4424-8914-65578cc8c0a8,,500,500,fixation,,<div class = centerbox><div class = fixation>+</div></div>,none,500,test,,,,,,,,,,,819,82,poldrack-categorize,606,887360,0.0-605.0,f1f70f72-9867-4424-8914-65578cc8c0a8,,1500,250,stim,,"<div class = centerbox><div class = stroop-stim style = ""color:red"">RED</div></div>","66,71,82",1500,test,,,congruent,TRUE,82,,,500,red,red,-1,-1,poldrack-single-stim,607,888121,0.0-606.0,f1f70f72-9867-4424-8914-65578cc8c0a8,,500,500,fixation,,<div class = centerbox><div class = fixation>+</div></div>,none,500,test,,,,,,,,,,,876,82,poldrack-categorize,608,890632,0.0-607.0,f1f70f72-9867-4424-8914-65578cc8c0a8,,1500,250,stim,,"<div class = centerbox><div class = stroop-stim style = ""color:red"">GREEN</div></div>","66,71,82",1500,test,,,incongruent,TRUE,82,,,500,red,green,-1,-1,poldrack-single-stim,609,891389,0.0-608.0,f1f70f72-9867-4424-8914-65578cc8c0a8,,500,500,fixation,,<div class = centerbox><div class = fixation>+</div></div>,none,500,test,,,,,,,,,,,952,82,poldrack-categorize,610,893902,0.0-609.0,f1f70f72-9867-4424-8914-65578cc8c0a8,,1500,250,stim,,"<div class = centerbox><div class = stroop-stim style = ""color:red"">GREEN</div></div>","66,71,82",1500,test,,,incongruent,TRUE,82,,,500,red,green,-1,-1,poldrack-single-stim,611,894662,0.0-610.0,f1f70f72-9867-4424-8914-65578cc8c0a8,,500,500,fixation,,<div class = centerbox><div class = fixation>+</div></div>,none,500,test,,,,,,,,,,,638,71,poldrack-categorize,612,897175,0.0-611.0,f1f70f72-9867-4424-8914-65578cc8c0a8,,1500,250,stim,,"<div class = centerbox><div class = stroop-stim style = ""color:green"">RED</div></div>","66,71,82",1500,test,,,incongruent,TRUE,71,,,500,green,red,-1,-1,poldrack-single-stim,613,897932,0.0-612.0,f1f70f72-9867-4424-8914-65578cc8c0a8,,500,500,fixation,,<div class = centerbox><div class = fixation>+</div></div>,none,500,test,,,,,,,,,,,855,82,poldrack-categorize,614,900443,0.0-613.0,f1f70f72-9867-4424-8914-65578cc8c0a8,,1500,250,stim,,"<div class = centerbox><div class = stroop-stim style = ""color:red"">BLUE</div></div>","66,71,82",1500,test,,,incongruent,TRUE,82,,,500,red,blue,-1,-1,poldrack-single-stim,615,901204,0.0-614.0,f1f70f72-9867-4424-8914-65578cc8c0a8,,500,500,fixation,,<div class = centerbox><div class = fixation>+</div></div>,none,500,test,,,,,,,,,,,1074,66,poldrack-categorize,616,903712,0.0-615.0,f1f70f72-9867-4424-8914-65578cc8c0a8,,1500,250,stim,,"<div class = centerbox><div class = stroop-stim style = ""color:blue"">BLUE</div></div>","66,71,82",1500,test,,,congruent,TRUE,66,,,500,blue,blue,-1,-1,poldrack-single-stim,617,904471,0.0-616.0,f1f70f72-9867-4424-8914-65578cc8c0a8,,500,500,fixation,,<div class = centerbox><div class = fixation>+</div></div>,none,500,test,,,,,,,,,,,758,66,poldrack-categorize,618,906979,0.0-617.0,f1f70f72-9867-4424-8914-65578cc8c0a8,,1500,250,stim,,"<div class = centerbox><div class = stroop-stim style = ""color:blue"">BLUE</div></div>","66,71,82",1500,test,,,congruent,TRUE,66,,,500,blue,blue,-1,-1,poldrack-single-stim,619,907733,0.0-618.0,f1f70f72-9867-4424-8914-65578cc8c0a8,,500,500,fixation,,<div class = centerbox><div class = fixation>+</div></div>,none,500,test,,,,,,,,,,,661,66,poldrack-categorize,620,910245,0.0-619.0,f1f70f72-9867-4424-8914-65578cc8c0a8,,1500,250,stim,,"<div class = centerbox><div class = stroop-stim style = ""color:blue"">BLUE</div></div>","66,71,82",1500,test,,,congruent,TRUE,66,,,500,blue,blue,-1,-1,poldrack-single-stim,621,911001,0.0-620.0,f1f70f72-9867-4424-8914-65578cc8c0a8,,500,500,fixation,,<div class = centerbox><div class = fixation>+</div></div>,none,500,test,,,,,,,,,,,824,82,poldrack-categorize,622,913514,0.0-621.0,f1f70f72-9867-4424-8914-65578cc8c0a8,,1500,250,stim,,"<div class = centerbox><div class = stroop-stim style = ""color:red"">BLUE</div></div>","66,71,82",1500,test,,,incongruent,TRUE,82,,,500,red,blue,-1,-1,poldrack-single-stim,623,914275,0.0-622.0,f1f70f72-9867-4424-8914-65578cc8c0a8,,500,500,fixation,,<div class = centerbox><div class = fixation>+</div></div>,none,500,test,,,,,,,,,,,1048,82,poldrack-categorize,624,916788,0.0-623.0,f1f70f72-9867-4424-8914-65578cc8c0a8,,1500,250,stim,,"<div class = centerbox><div class = stroop-stim style = ""color:red"">GREEN</div></div>","66,71,82",1500,test,,,incongruent,TRUE,82,,,500,red,green,-1,-1,poldrack-single-stim,625,917548,0.0-624.0,f1f70f72-9867-4424-8914-65578cc8c0a8,,500,500,fixation,,<div class = centerbox><div class = fixation>+</div></div>,none,500,test,,,,,,,,,,,797,71,poldrack-categorize,626,920061,0.0-625.0,f1f70f72-9867-4424-8914-65578cc8c0a8,,1500,250,stim,,"<div class = centerbox><div class = stroop-stim style = ""color:green"">BLUE</div></div>","66,71,82",1500,test,,,incongruent,TRUE,71,,,500,green,blue,-1,-1,poldrack-single-stim,627,920821,0.0-626.0,f1f70f72-9867-4424-8914-65578cc8c0a8,,500,500,fixation,,<div class = centerbox><div class = fixation>+</div></div>,none,500,test,,,,,,,,,,,883,71,poldrack-categorize,628,923335,0.0-627.0,f1f70f72-9867-4424-8914-65578cc8c0a8,,1500,250,stim,,"<div class = centerbox><div class = stroop-stim style = ""color:green"">BLUE</div></div>","66,71,82",1500,test,,,incongruent,TRUE,71,,,500,green,blue,-1,-1,poldrack-single-stim,629,924094,0.0-628.0,f1f70f72-9867-4424-8914-65578cc8c0a8,,500,500,fixation,,<div class = centerbox><div class = fixation>+</div></div>,none,500,test,,,,,,,,,,,1363,66,poldrack-categorize,630,926605,0.0-629.0,f1f70f72-9867-4424-8914-65578cc8c0a8,,1500,250,stim,,"<div class = centerbox><div class = stroop-stim style = ""color:blue"">RED</div></div>","66,71,82",1500,test,,,incongruent,TRUE,66,,,500,blue,red,-1,-1,poldrack-single-stim,631,927363,0.0-630.0,f1f70f72-9867-4424-8914-65578cc8c0a8,,500,500,fixation,,<div class = centerbox><div class = fixation>+</div></div>,none,500,test,,,,,,,,,,,828,71,poldrack-categorize,632,929876,0.0-631.0,f1f70f72-9867-4424-8914-65578cc8c0a8,,1500,250,stim,,"<div class = centerbox><div class = stroop-stim style = ""color:green"">GREEN</div></div>","66,71,82",1500,test,,,congruent,TRUE,71,,,500,green,green,25772,,survey-text,633,955901,0.0-633.0,f1f70f72-9867-4424-8914-65578cc8c0a8,,,,post task questions,,,,,,,,,,,"{""Q0"":""to type the color of the ink of the word presented on the screen"",""Q1"":""no""}",,,,,4899,13,poldrack-text,634,961804,0.0-634.0,f1f70f72-9867-4424-8914-65578cc8c0a8,<div class = centerbox><p class = center-block-text>Thanks for completing this task!</p><p class = center-block-text>Press <strong>enter</strong> to continue.</p></div>,4899,0,end,,,,,,,,,,,,stroop,,,,TRUE8247,13,text,635,970091,0.0-635.0,f1f70f72-9867-4424-8914-65578cc8c0a8,,,,,,,,,,,,,,,,,,,,