rt,key_press,trial_type,trial_index,time_elapsed,internal_node_id,subject,text,block_duration,timing_post_trial,trial_id,view_history,stimulus,possible_responses,stim_duration,exp_stage,stim_place,stim_id,condition,correct,correct_response,responses,exp_id,feedback_duration,stim_color,stim_word,credit_var1563,13,text,0,1573,0.0-0.0,c3f32840-1bb0-43d1-885a-85897e2fe45f,,,,,,,,,,,,,,,,,,,,1405,13,poldrack-text,389,532240,0.0-388.0-0.0,c3f32840-1bb0-43d1-885a-85897e2fe45f,<div class = centerbox><p class = center-block-text>Done with instructions. Press <strong>enter</strong> to continue.</p></div>,1405,0,instruction,,,,,,,,,,,,,,,,25765,,poldrack-instructions,390,558006,0.0-388.0-1.0,c3f32840-1bb0-43d1-885a-85897e2fe45f,,,,instruction,"[{""page_index"":0,""viewing_time"":25765}]",,,,,,,,,,,,,,,4145,13,poldrack-text,391,563157,0.0-389.0,c3f32840-1bb0-43d1-885a-85897e2fe45f,"<div class = centerbox><p class = block-text>We will start with a few practice trials. Remember, press the key corresponding to the <strong>ink</strong> color of the word: ""r"" for words colored red, ""b"" for words colored blue, and ""g"" for words colored green.</p><p class = block-text>Press <strong>enter</strong> to begin practice.</p></div>",4145,1000,practice_intro,,,,,,,,,,,,,,,,-1,-1,poldrack-single-stim,392,564668,0.0-390.0,c3f32840-1bb0-43d1-885a-85897e2fe45f,,500,500,fixation,,<div class = centerbox><div class = fixation>+</div></div>,none,500,practice,,,,,,,,,,,1416,66,poldrack-categorize,393,567182,0.0-391.0,c3f32840-1bb0-43d1-885a-85897e2fe45f,,1500,250,stim,,"<div class = centerbox><div class = stroop-stim style = ""color:blue"">GREEN</div></div>","66,71,82",1500,practice,,,incongruent,TRUE,66,,,500,blue,green,-1,-1,poldrack-single-stim,394,567942,0.0-392.0,c3f32840-1bb0-43d1-885a-85897e2fe45f,,500,500,fixation,,<div class = centerbox><div class = fixation>+</div></div>,none,500,practice,,,,,,,,,,,954,71,poldrack-categorize,395,570455,0.0-393.0,c3f32840-1bb0-43d1-885a-85897e2fe45f,,1500,250,stim,,"<div class = centerbox><div class = stroop-stim style = ""color:green"">BLUE</div></div>","66,71,82",1500,practice,,,incongruent,TRUE,71,,,500,green,blue,-1,-1,poldrack-single-stim,396,571216,0.0-394.0,c3f32840-1bb0-43d1-885a-85897e2fe45f,,500,500,fixation,,<div class = centerbox><div class = fixation>+</div></div>,none,500,practice,,,,,,,,,,,538,71,poldrack-categorize,397,573729,0.0-395.0,c3f32840-1bb0-43d1-885a-85897e2fe45f,,1500,250,stim,,"<div class = centerbox><div class = stroop-stim style = ""color:green"">GREEN</div></div>","66,71,82",1500,practice,,,congruent,TRUE,71,,,500,green,green,-1,-1,poldrack-single-stim,398,574490,0.0-396.0,c3f32840-1bb0-43d1-885a-85897e2fe45f,,500,500,fixation,,<div class = centerbox><div class = fixation>+</div></div>,none,500,practice,,,,,,,,,,,819,82,poldrack-categorize,399,576999,0.0-397.0,c3f32840-1bb0-43d1-885a-85897e2fe45f,,1500,250,stim,,"<div class = centerbox><div class = stroop-stim style = ""color:red"">BLUE</div></div>","66,71,82",1500,practice,,,incongruent,TRUE,82,,,500,red,blue,-1,-1,poldrack-single-stim,400,577758,0.0-398.0,c3f32840-1bb0-43d1-885a-85897e2fe45f,,500,500,fixation,,<div class = centerbox><div class = fixation>+</div></div>,none,500,practice,,,,,,,,,,,791,82,poldrack-categorize,401,580271,0.0-399.0,c3f32840-1bb0-43d1-885a-85897e2fe45f,,1500,250,stim,,"<div class = centerbox><div class = stroop-stim style = ""color:red"">RED</div></div>","66,71,82",1500,practice,,,congruent,TRUE,82,,,500,red,red,-1,-1,poldrack-single-stim,402,581032,0.0-400.0,c3f32840-1bb0-43d1-885a-85897e2fe45f,,500,500,fixation,,<div class = centerbox><div class = fixation>+</div></div>,none,500,practice,,,,,,,,,,,671,71,poldrack-categorize,403,583540,0.0-401.0,c3f32840-1bb0-43d1-885a-85897e2fe45f,,1500,250,stim,,"<div class = centerbox><div class = stroop-stim style = ""color:green"">GREEN</div></div>","66,71,82",1500,practice,,,congruent,TRUE,71,,,500,green,green,-1,-1,poldrack-single-stim,404,584300,0.0-402.0,c3f32840-1bb0-43d1-885a-85897e2fe45f,,500,500,fixation,,<div class = centerbox><div class = fixation>+</div></div>,none,500,practice,,,,,,,,,,,403,66,poldrack-categorize,405,586812,0.0-403.0,c3f32840-1bb0-43d1-885a-85897e2fe45f,,1500,250,stim,,"<div class = centerbox><div class = stroop-stim style = ""color:blue"">BLUE</div></div>","66,71,82",1500,practice,,,congruent,TRUE,66,,,500,blue,blue,-1,-1,poldrack-single-stim,406,587568,0.0-404.0,c3f32840-1bb0-43d1-885a-85897e2fe45f,,500,500,fixation,,<div class = centerbox><div class = fixation>+</div></div>,none,500,practice,,,,,,,,,,,1231,82,poldrack-categorize,407,590082,0.0-405.0,c3f32840-1bb0-43d1-885a-85897e2fe45f,,1500,250,stim,,"<div class = centerbox><div class = stroop-stim style = ""color:red"">RED</div></div>","66,71,82",1500,practice,,,congruent,TRUE,82,,,500,red,red,-1,-1,poldrack-single-stim,408,590837,0.0-406.0,c3f32840-1bb0-43d1-885a-85897e2fe45f,,500,500,fixation,,<div class = centerbox><div class = fixation>+</div></div>,none,500,practice,,,,,,,,,,,1484,66,poldrack-categorize,409,593350,0.0-407.0,c3f32840-1bb0-43d1-885a-85897e2fe45f,,1500,250,stim,,"<div class = centerbox><div class = stroop-stim style = ""color:blue"">BLUE</div></div>","66,71,82",1500,practice,,,congruent,TRUE,66,,,500,blue,blue,-1,-1,poldrack-single-stim,410,594111,0.0-408.0,c3f32840-1bb0-43d1-885a-85897e2fe45f,,500,500,fixation,,<div class = centerbox><div class = fixation>+</div></div>,none,500,practice,,,,,,,,,,,922,66,poldrack-categorize,411,596624,0.0-409.0,c3f32840-1bb0-43d1-885a-85897e2fe45f,,1500,250,stim,,"<div class = centerbox><div class = stroop-stim style = ""color:blue"">GREEN</div></div>","66,71,82",1500,practice,,,incongruent,TRUE,66,,,500,blue,green,-1,-1,poldrack-single-stim,412,597385,0.0-410.0,c3f32840-1bb0-43d1-885a-85897e2fe45f,,500,500,fixation,,<div class = centerbox><div class = fixation>+</div></div>,none,500,practice,,,,,,,,,,,663,66,poldrack-categorize,413,599897,0.0-411.0,c3f32840-1bb0-43d1-885a-85897e2fe45f,,1500,250,stim,,"<div class = centerbox><div class = stroop-stim style = ""color:blue"">BLUE</div></div>","66,71,82",1500,practice,,,congruent,TRUE,66,,,500,blue,blue,-1,-1,poldrack-single-stim,414,600653,0.0-412.0,c3f32840-1bb0-43d1-885a-85897e2fe45f,,500,500,fixation,,<div class = centerbox><div class = fixation>+</div></div>,none,500,practice,,,,,,,,,,,1064,82,poldrack-categorize,415,603166,0.0-413.0,c3f32840-1bb0-43d1-885a-85897e2fe45f,,1500,250,stim,,"<div class = centerbox><div class = stroop-stim style = ""color:red"">GREEN</div></div>","66,71,82",1500,practice,,,incongruent,TRUE,82,,,500,red,green,-1,-1,poldrack-single-stim,416,603927,0.0-414.0,c3f32840-1bb0-43d1-885a-85897e2fe45f,,500,500,fixation,,<div class = centerbox><div class = fixation>+</div></div>,none,500,practice,,,,,,,,,,,938,66,poldrack-categorize,417,606437,0.0-415.0,c3f32840-1bb0-43d1-885a-85897e2fe45f,,1500,250,stim,,"<div class = centerbox><div class = stroop-stim style = ""color:blue"">RED</div></div>","66,71,82",1500,practice,,,incongruent,TRUE,66,,,500,blue,red,-1,-1,poldrack-single-stim,418,607195,0.0-416.0,c3f32840-1bb0-43d1-885a-85897e2fe45f,,500,500,fixation,,<div class = centerbox><div class = fixation>+</div></div>,none,500,practice,,,,,,,,,,,708,71,poldrack-categorize,419,609708,0.0-417.0,c3f32840-1bb0-43d1-885a-85897e2fe45f,,1500,250,stim,,"<div class = centerbox><div class = stroop-stim style = ""color:green"">RED</div></div>","66,71,82",1500,practice,,,incongruent,TRUE,71,,,500,green,red,-1,-1,poldrack-single-stim,420,610469,0.0-418.0,c3f32840-1bb0-43d1-885a-85897e2fe45f,,500,500,fixation,,<div class = centerbox><div class = fixation>+</div></div>,none,500,practice,,,,,,,,,,,618,71,poldrack-categorize,421,612983,0.0-419.0,c3f32840-1bb0-43d1-885a-85897e2fe45f,,1500,250,stim,,"<div class = centerbox><div class = stroop-stim style = ""color:green"">GREEN</div></div>","66,71,82",1500,practice,,,congruent,TRUE,71,,,500,green,green,-1,-1,poldrack-single-stim,422,613737,0.0-420.0,c3f32840-1bb0-43d1-885a-85897e2fe45f,,500,500,fixation,,<div class = centerbox><div class = fixation>+</div></div>,none,500,practice,,,,,,,,,,,590,66,poldrack-categorize,423,616251,0.0-421.0,c3f32840-1bb0-43d1-885a-85897e2fe45f,,1500,250,stim,,"<div class = centerbox><div class = stroop-stim style = ""color:blue"">BLUE</div></div>","66,71,82",1500,practice,,,congruent,TRUE,66,,,500,blue,blue,-1,-1,poldrack-single-stim,424,617011,0.0-422.0,c3f32840-1bb0-43d1-885a-85897e2fe45f,,500,500,fixation,,<div class = centerbox><div class = fixation>+</div></div>,none,500,practice,,,,,,,,,,,838,66,poldrack-categorize,425,619525,0.0-423.0,c3f32840-1bb0-43d1-885a-85897e2fe45f,,1500,250,stim,,"<div class = centerbox><div class = stroop-stim style = ""color:blue"">RED</div></div>","66,71,82",1500,practice,,,incongruent,TRUE,66,,,500,blue,red,-1,-1,poldrack-single-stim,426,620285,0.0-424.0,c3f32840-1bb0-43d1-885a-85897e2fe45f,,500,500,fixation,,<div class = centerbox><div class = fixation>+</div></div>,none,500,practice,,,,,,,,,,,669,71,poldrack-categorize,427,622799,0.0-425.0,c3f32840-1bb0-43d1-885a-85897e2fe45f,,1500,250,stim,,"<div class = centerbox><div class = stroop-stim style = ""color:green"">RED</div></div>","66,71,82",1500,practice,,,incongruent,TRUE,71,,,500,green,red,-1,-1,poldrack-single-stim,428,623559,0.0-426.0,c3f32840-1bb0-43d1-885a-85897e2fe45f,,500,500,fixation,,<div class = centerbox><div class = fixation>+</div></div>,none,500,practice,,,,,,,,,,,691,82,poldrack-categorize,429,626073,0.0-427.0,c3f32840-1bb0-43d1-885a-85897e2fe45f,,1500,250,stim,,"<div class = centerbox><div class = stroop-stim style = ""color:red"">RED</div></div>","66,71,82",1500,practice,,,congruent,TRUE,82,,,500,red,red,-1,-1,poldrack-single-stim,430,626833,0.0-428.0,c3f32840-1bb0-43d1-885a-85897e2fe45f,,500,500,fixation,,<div class = centerbox><div class = fixation>+</div></div>,none,500,practice,,,,,,,,,,,826,82,poldrack-categorize,431,629341,0.0-429.0,c3f32840-1bb0-43d1-885a-85897e2fe45f,,1500,250,stim,,"<div class = centerbox><div class = stroop-stim style = ""color:red"">BLUE</div></div>","66,71,82",1500,practice,,,incongruent,TRUE,82,,,500,red,blue,-1,-1,poldrack-single-stim,432,630102,0.0-430.0,c3f32840-1bb0-43d1-885a-85897e2fe45f,,500,500,fixation,,<div class = centerbox><div class = fixation>+</div></div>,none,500,practice,,,,,,,,,,,765,82,poldrack-categorize,433,632615,0.0-431.0,c3f32840-1bb0-43d1-885a-85897e2fe45f,,1500,250,stim,,"<div class = centerbox><div class = stroop-stim style = ""color:red"">GREEN</div></div>","66,71,82",1500,practice,,,incongruent,TRUE,82,,,500,red,green,-1,-1,poldrack-single-stim,434,633375,0.0-432.0,c3f32840-1bb0-43d1-885a-85897e2fe45f,,500,500,fixation,,<div class = centerbox><div class = fixation>+</div></div>,none,500,practice,,,,,,,,,,,607,82,poldrack-categorize,435,635889,0.0-433.0,c3f32840-1bb0-43d1-885a-85897e2fe45f,,1500,250,stim,,"<div class = centerbox><div class = stroop-stim style = ""color:red"">RED</div></div>","66,71,82",1500,practice,,,congruent,TRUE,82,,,500,red,red,-1,-1,poldrack-single-stim,436,636650,0.0-434.0,c3f32840-1bb0-43d1-885a-85897e2fe45f,,500,500,fixation,,<div class = centerbox><div class = fixation>+</div></div>,none,500,practice,,,,,,,,,,,978,71,poldrack-categorize,437,639163,0.0-435.0,c3f32840-1bb0-43d1-885a-85897e2fe45f,,1500,250,stim,,"<div class = centerbox><div class = stroop-stim style = ""color:green"">BLUE</div></div>","66,71,82",1500,practice,,,incongruent,TRUE,71,,,500,green,blue,-1,-1,poldrack-single-stim,438,639924,0.0-436.0,c3f32840-1bb0-43d1-885a-85897e2fe45f,,500,500,fixation,,<div class = centerbox><div class = fixation>+</div></div>,none,500,practice,,,,,,,,,,,450,71,poldrack-categorize,439,642434,0.0-437.0,c3f32840-1bb0-43d1-885a-85897e2fe45f,,1500,250,stim,,"<div class = centerbox><div class = stroop-stim style = ""color:green"">GREEN</div></div>","66,71,82",1500,practice,,,congruent,TRUE,71,,,500,green,green,3928,13,poldrack-text,440,646616,0.0-439.0,c3f32840-1bb0-43d1-885a-85897e2fe45f,<div class = centerbox><p class = center-block-text>We will now start the test. Respond exactly like you did during practice.</p><p class = center-block-text>Press <strong>enter</strong> to begin the test.</p></div>,3928,1000,test_intro,,,,,,,,,,,,,,,,-1,-1,poldrack-single-stim,441,648126,0.0-440.0,c3f32840-1bb0-43d1-885a-85897e2fe45f,,500,500,fixation,,<div class = centerbox><div class = fixation>+</div></div>,none,500,test,,,,,,,,,,,977,66,poldrack-categorize,442,650636,0.0-441.0,c3f32840-1bb0-43d1-885a-85897e2fe45f,,1500,250,stim,,"<div class = centerbox><div class = stroop-stim style = ""color:blue"">GREEN</div></div>","66,71,82",1500,test,,,incongruent,TRUE,66,,,500,blue,green,-1,-1,poldrack-single-stim,443,651394,0.0-442.0,c3f32840-1bb0-43d1-885a-85897e2fe45f,,500,500,fixation,,<div class = centerbox><div class = fixation>+</div></div>,none,500,test,,,,,,,,,,,477,71,poldrack-categorize,444,653908,0.0-443.0,c3f32840-1bb0-43d1-885a-85897e2fe45f,,1500,250,stim,,"<div class = centerbox><div class = stroop-stim style = ""color:green"">GREEN</div></div>","66,71,82",1500,test,,,congruent,TRUE,71,,,500,green,green,-1,-1,poldrack-single-stim,445,654664,0.0-444.0,c3f32840-1bb0-43d1-885a-85897e2fe45f,,500,500,fixation,,<div class = centerbox><div class = fixation>+</div></div>,none,500,test,,,,,,,,,,,391,66,poldrack-categorize,446,657172,0.0-445.0,c3f32840-1bb0-43d1-885a-85897e2fe45f,,1500,250,stim,,"<div class = centerbox><div class = stroop-stim style = ""color:blue"">BLUE</div></div>","66,71,82",1500,test,,,congruent,TRUE,66,,,500,blue,blue,-1,-1,poldrack-single-stim,447,657931,0.0-446.0,c3f32840-1bb0-43d1-885a-85897e2fe45f,,500,500,fixation,,<div class = centerbox><div class = fixation>+</div></div>,none,500,test,,,,,,,,,,,499,71,poldrack-categorize,448,660444,0.0-447.0,c3f32840-1bb0-43d1-885a-85897e2fe45f,,1500,250,stim,,"<div class = centerbox><div class = stroop-stim style = ""color:green"">GREEN</div></div>","66,71,82",1500,test,,,congruent,TRUE,71,,,500,green,green,-1,-1,poldrack-single-stim,449,661205,0.0-448.0,c3f32840-1bb0-43d1-885a-85897e2fe45f,,500,500,fixation,,<div class = centerbox><div class = fixation>+</div></div>,none,500,test,,,,,,,,,,,488,82,poldrack-categorize,450,663718,0.0-449.0,c3f32840-1bb0-43d1-885a-85897e2fe45f,,1500,250,stim,,"<div class = centerbox><div class = stroop-stim style = ""color:red"">RED</div></div>","66,71,82",1500,test,,,congruent,TRUE,82,,,500,red,red,-1,-1,poldrack-single-stim,451,664479,0.0-450.0,c3f32840-1bb0-43d1-885a-85897e2fe45f,,500,500,fixation,,<div class = centerbox><div class = fixation>+</div></div>,none,500,test,,,,,,,,,,,623,66,poldrack-categorize,452,666992,0.0-451.0,c3f32840-1bb0-43d1-885a-85897e2fe45f,,1500,250,stim,,"<div class = centerbox><div class = stroop-stim style = ""color:blue"">RED</div></div>","66,71,82",1500,test,,,incongruent,TRUE,66,,,500,blue,red,-1,-1,poldrack-single-stim,453,667753,0.0-452.0,c3f32840-1bb0-43d1-885a-85897e2fe45f,,500,500,fixation,,<div class = centerbox><div class = fixation>+</div></div>,none,500,test,,,,,,,,,,,657,82,poldrack-categorize,454,670262,0.0-453.0,c3f32840-1bb0-43d1-885a-85897e2fe45f,,1500,250,stim,,"<div class = centerbox><div class = stroop-stim style = ""color:red"">RED</div></div>","66,71,82",1500,test,,,congruent,TRUE,82,,,500,red,red,-1,-1,poldrack-single-stim,455,671021,0.0-454.0,c3f32840-1bb0-43d1-885a-85897e2fe45f,,500,500,fixation,,<div class = centerbox><div class = fixation>+</div></div>,none,500,test,,,,,,,,,,,393,71,poldrack-categorize,456,673534,0.0-455.0,c3f32840-1bb0-43d1-885a-85897e2fe45f,,1500,250,stim,,"<div class = centerbox><div class = stroop-stim style = ""color:green"">GREEN</div></div>","66,71,82",1500,test,,,congruent,TRUE,71,,,500,green,green,-1,-1,poldrack-single-stim,457,674295,0.0-456.0,c3f32840-1bb0-43d1-885a-85897e2fe45f,,500,500,fixation,,<div class = centerbox><div class = fixation>+</div></div>,none,500,test,,,,,,,,,,,611,82,poldrack-categorize,458,676799,0.0-457.0,c3f32840-1bb0-43d1-885a-85897e2fe45f,,1500,250,stim,,"<div class = centerbox><div class = stroop-stim style = ""color:red"">RED</div></div>","66,71,82",1500,test,,,congruent,TRUE,82,,,500,red,red,-1,-1,poldrack-single-stim,459,677557,0.0-458.0,c3f32840-1bb0-43d1-885a-85897e2fe45f,,500,500,fixation,,<div class = centerbox><div class = fixation>+</div></div>,none,500,test,,,,,,,,,,,788,66,poldrack-categorize,460,680069,0.0-459.0,c3f32840-1bb0-43d1-885a-85897e2fe45f,,1500,250,stim,,"<div class = centerbox><div class = stroop-stim style = ""color:blue"">RED</div></div>","66,71,82",1500,test,,,incongruent,TRUE,66,,,500,blue,red,-1,-1,poldrack-single-stim,461,680826,0.0-460.0,c3f32840-1bb0-43d1-885a-85897e2fe45f,,500,500,fixation,,<div class = centerbox><div class = fixation>+</div></div>,none,500,test,,,,,,,,,,,478,71,poldrack-categorize,462,683339,0.0-461.0,c3f32840-1bb0-43d1-885a-85897e2fe45f,,1500,250,stim,,"<div class = centerbox><div class = stroop-stim style = ""color:green"">GREEN</div></div>","66,71,82",1500,test,,,congruent,TRUE,71,,,500,green,green,-1,-1,poldrack-single-stim,463,684094,0.0-462.0,c3f32840-1bb0-43d1-885a-85897e2fe45f,,500,500,fixation,,<div class = centerbox><div class = fixation>+</div></div>,none,500,test,,,,,,,,,,,540,82,poldrack-categorize,464,686607,0.0-463.0,c3f32840-1bb0-43d1-885a-85897e2fe45f,,1500,250,stim,,"<div class = centerbox><div class = stroop-stim style = ""color:red"">BLUE</div></div>","66,71,82",1500,test,,,incongruent,TRUE,82,,,500,red,blue,-1,-1,poldrack-single-stim,465,687368,0.0-464.0,c3f32840-1bb0-43d1-885a-85897e2fe45f,,500,500,fixation,,<div class = centerbox><div class = fixation>+</div></div>,none,500,test,,,,,,,,,,,776,66,poldrack-categorize,466,689881,0.0-465.0,c3f32840-1bb0-43d1-885a-85897e2fe45f,,1500,250,stim,,"<div class = centerbox><div class = stroop-stim style = ""color:blue"">GREEN</div></div>","66,71,82",1500,test,,,incongruent,TRUE,66,,,500,blue,green,-1,-1,poldrack-single-stim,467,690642,0.0-466.0,c3f32840-1bb0-43d1-885a-85897e2fe45f,,500,500,fixation,,<div class = centerbox><div class = fixation>+</div></div>,none,500,test,,,,,,,,,,,619,82,poldrack-categorize,468,693155,0.0-467.0,c3f32840-1bb0-43d1-885a-85897e2fe45f,,1500,250,stim,,"<div class = centerbox><div class = stroop-stim style = ""color:red"">GREEN</div></div>","66,71,82",1500,test,,,incongruent,TRUE,82,,,500,red,green,-1,-1,poldrack-single-stim,469,693910,0.0-468.0,c3f32840-1bb0-43d1-885a-85897e2fe45f,,500,500,fixation,,<div class = centerbox><div class = fixation>+</div></div>,none,500,test,,,,,,,,,,,456,66,poldrack-categorize,470,696423,0.0-469.0,c3f32840-1bb0-43d1-885a-85897e2fe45f,,1500,250,stim,,"<div class = centerbox><div class = stroop-stim style = ""color:blue"">BLUE</div></div>","66,71,82",1500,test,,,congruent,TRUE,66,,,500,blue,blue,-1,-1,poldrack-single-stim,471,697184,0.0-470.0,c3f32840-1bb0-43d1-885a-85897e2fe45f,,500,500,fixation,,<div class = centerbox><div class = fixation>+</div></div>,none,500,test,,,,,,,,,,,501,66,poldrack-categorize,472,699692,0.0-471.0,c3f32840-1bb0-43d1-885a-85897e2fe45f,,1500,250,stim,,"<div class = centerbox><div class = stroop-stim style = ""color:blue"">GREEN</div></div>","66,71,82",1500,test,,,incongruent,TRUE,66,,,500,blue,green,-1,-1,poldrack-single-stim,473,700452,0.0-472.0,c3f32840-1bb0-43d1-885a-85897e2fe45f,,500,500,fixation,,<div class = centerbox><div class = fixation>+</div></div>,none,500,test,,,,,,,,,,,856,71,poldrack-categorize,474,702966,0.0-473.0,c3f32840-1bb0-43d1-885a-85897e2fe45f,,1500,250,stim,,"<div class = centerbox><div class = stroop-stim style = ""color:green"">BLUE</div></div>","66,71,82",1500,test,,,incongruent,TRUE,71,,,500,green,blue,-1,-1,poldrack-single-stim,475,703726,0.0-474.0,c3f32840-1bb0-43d1-885a-85897e2fe45f,,500,500,fixation,,<div class = centerbox><div class = fixation>+</div></div>,none,500,test,,,,,,,,,,,766,82,poldrack-categorize,476,706240,0.0-475.0,c3f32840-1bb0-43d1-885a-85897e2fe45f,,1500,250,stim,,"<div class = centerbox><div class = stroop-stim style = ""color:red"">RED</div></div>","66,71,82",1500,test,,,congruent,TRUE,82,,,500,red,red,-1,-1,poldrack-single-stim,477,707000,0.0-476.0,c3f32840-1bb0-43d1-885a-85897e2fe45f,,500,500,fixation,,<div class = centerbox><div class = fixation>+</div></div>,none,500,test,,,,,,,,,,,687,82,poldrack-categorize,478,709513,0.0-477.0,c3f32840-1bb0-43d1-885a-85897e2fe45f,,1500,250,stim,,"<div class = centerbox><div class = stroop-stim style = ""color:red"">GREEN</div></div>","66,71,82",1500,test,,,incongruent,TRUE,82,,,500,red,green,-1,-1,poldrack-single-stim,479,710274,0.0-478.0,c3f32840-1bb0-43d1-885a-85897e2fe45f,,500,500,fixation,,<div class = centerbox><div class = fixation>+</div></div>,none,500,test,,,,,,,,,,,597,66,poldrack-categorize,480,712788,0.0-479.0,c3f32840-1bb0-43d1-885a-85897e2fe45f,,1500,250,stim,,"<div class = centerbox><div class = stroop-stim style = ""color:blue"">BLUE</div></div>","66,71,82",1500,test,,,congruent,TRUE,66,,,500,blue,blue,-1,-1,poldrack-single-stim,481,713548,0.0-480.0,c3f32840-1bb0-43d1-885a-85897e2fe45f,,500,500,fixation,,<div class = centerbox><div class = fixation>+</div></div>,none,500,test,,,,,,,,,,,633,66,poldrack-categorize,482,716062,0.0-481.0,c3f32840-1bb0-43d1-885a-85897e2fe45f,,1500,250,stim,,"<div class = centerbox><div class = stroop-stim style = ""color:blue"">BLUE</div></div>","66,71,82",1500,test,,,congruent,TRUE,66,,,500,blue,blue,-1,-1,poldrack-single-stim,483,716822,0.0-482.0,c3f32840-1bb0-43d1-885a-85897e2fe45f,,500,500,fixation,,<div class = centerbox><div class = fixation>+</div></div>,none,500,test,,,,,,,,,,,439,66,poldrack-categorize,484,719334,0.0-483.0,c3f32840-1bb0-43d1-885a-85897e2fe45f,,1500,250,stim,,"<div class = centerbox><div class = stroop-stim style = ""color:blue"">RED</div></div>","66,71,82",1500,test,,,incongruent,TRUE,66,,,500,blue,red,-1,-1,poldrack-single-stim,485,720091,0.0-484.0,c3f32840-1bb0-43d1-885a-85897e2fe45f,,500,500,fixation,,<div class = centerbox><div class = fixation>+</div></div>,none,500,test,,,,,,,,,,,423,66,poldrack-categorize,486,722604,0.0-485.0,c3f32840-1bb0-43d1-885a-85897e2fe45f,,1500,250,stim,,"<div class = centerbox><div class = stroop-stim style = ""color:blue"">RED</div></div>","66,71,82",1500,test,,,incongruent,TRUE,66,,,500,blue,red,-1,-1,poldrack-single-stim,487,723365,0.0-486.0,c3f32840-1bb0-43d1-885a-85897e2fe45f,,500,500,fixation,,<div class = centerbox><div class = fixation>+</div></div>,none,500,test,,,,,,,,,,,1056,82,poldrack-categorize,488,725872,0.0-487.0,c3f32840-1bb0-43d1-885a-85897e2fe45f,,1500,250,stim,,"<div class = centerbox><div class = stroop-stim style = ""color:red"">BLUE</div></div>","66,71,82",1500,test,,,incongruent,TRUE,82,,,500,red,blue,-1,-1,poldrack-single-stim,489,726633,0.0-488.0,c3f32840-1bb0-43d1-885a-85897e2fe45f,,500,500,fixation,,<div class = centerbox><div class = fixation>+</div></div>,none,500,test,,,,,,,,,,,541,82,poldrack-categorize,490,729146,0.0-489.0,c3f32840-1bb0-43d1-885a-85897e2fe45f,,1500,250,stim,,"<div class = centerbox><div class = stroop-stim style = ""color:red"">RED</div></div>","66,71,82",1500,test,,,congruent,TRUE,82,,,500,red,red,-1,-1,poldrack-single-stim,491,729907,0.0-490.0,c3f32840-1bb0-43d1-885a-85897e2fe45f,,500,500,fixation,,<div class = centerbox><div class = fixation>+</div></div>,none,500,test,,,,,,,,,,,440,71,poldrack-categorize,492,732420,0.0-491.0,c3f32840-1bb0-43d1-885a-85897e2fe45f,,1500,250,stim,,"<div class = centerbox><div class = stroop-stim style = ""color:green"">BLUE</div></div>","66,71,82",1500,test,,,incongruent,TRUE,71,,,500,green,blue,-1,-1,poldrack-single-stim,493,733181,0.0-492.0,c3f32840-1bb0-43d1-885a-85897e2fe45f,,500,500,fixation,,<div class = centerbox><div class = fixation>+</div></div>,none,500,test,,,,,,,,,,,945,82,poldrack-categorize,494,735694,0.0-493.0,c3f32840-1bb0-43d1-885a-85897e2fe45f,,1500,250,stim,,"<div class = centerbox><div class = stroop-stim style = ""color:red"">BLUE</div></div>","66,71,82",1500,test,,,incongruent,TRUE,82,,,500,red,blue,-1,-1,poldrack-single-stim,495,736455,0.0-494.0,c3f32840-1bb0-43d1-885a-85897e2fe45f,,500,500,fixation,,<div class = centerbox><div class = fixation>+</div></div>,none,500,test,,,,,,,,,,,811,66,poldrack-categorize,496,738968,0.0-495.0,c3f32840-1bb0-43d1-885a-85897e2fe45f,,1500,250,stim,,"<div class = centerbox><div class = stroop-stim style = ""color:blue"">BLUE</div></div>","66,71,82",1500,test,,,congruent,TRUE,66,,,500,blue,blue,-1,-1,poldrack-single-stim,497,739729,0.0-496.0,c3f32840-1bb0-43d1-885a-85897e2fe45f,,500,500,fixation,,<div class = centerbox><div class = fixation>+</div></div>,none,500,test,,,,,,,,,,,867,71,poldrack-categorize,498,742242,0.0-497.0,c3f32840-1bb0-43d1-885a-85897e2fe45f,,1500,250,stim,,"<div class = centerbox><div class = stroop-stim style = ""color:green"">GREEN</div></div>","66,71,82",1500,test,,,congruent,TRUE,71,,,500,green,green,-1,-1,poldrack-single-stim,499,743003,0.0-498.0,c3f32840-1bb0-43d1-885a-85897e2fe45f,,500,500,fixation,,<div class = centerbox><div class = fixation>+</div></div>,none,500,test,,,,,,,,,,,529,66,poldrack-categorize,500,745516,0.0-499.0,c3f32840-1bb0-43d1-885a-85897e2fe45f,,1500,250,stim,,"<div class = centerbox><div class = stroop-stim style = ""color:blue"">BLUE</div></div>","66,71,82",1500,test,,,congruent,TRUE,66,,,500,blue,blue,-1,-1,poldrack-single-stim,501,746277,0.0-500.0,c3f32840-1bb0-43d1-885a-85897e2fe45f,,500,500,fixation,,<div class = centerbox><div class = fixation>+</div></div>,none,500,test,,,,,,,,,,,1047,82,poldrack-categorize,502,748790,0.0-501.0,c3f32840-1bb0-43d1-885a-85897e2fe45f,,1500,250,stim,,"<div class = centerbox><div class = stroop-stim style = ""color:red"">GREEN</div></div>","66,71,82",1500,test,,,incongruent,TRUE,82,,,500,red,green,-1,-1,poldrack-single-stim,503,749545,0.0-502.0,c3f32840-1bb0-43d1-885a-85897e2fe45f,,500,500,fixation,,<div class = centerbox><div class = fixation>+</div></div>,none,500,test,,,,,,,,,,,580,66,poldrack-categorize,504,752058,0.0-503.0,c3f32840-1bb0-43d1-885a-85897e2fe45f,,1500,250,stim,,"<div class = centerbox><div class = stroop-stim style = ""color:blue"">GREEN</div></div>","66,71,82",1500,test,,,incongruent,TRUE,66,,,500,blue,green,-1,-1,poldrack-single-stim,505,752819,0.0-504.0,c3f32840-1bb0-43d1-885a-85897e2fe45f,,500,500,fixation,,<div class = centerbox><div class = fixation>+</div></div>,none,500,test,,,,,,,,,,,614,71,poldrack-categorize,506,755332,0.0-505.0,c3f32840-1bb0-43d1-885a-85897e2fe45f,,1500,250,stim,,"<div class = centerbox><div class = stroop-stim style = ""color:green"">GREEN</div></div>","66,71,82",1500,test,,,congruent,TRUE,71,,,500,green,green,-1,-1,poldrack-single-stim,507,756093,0.0-506.0,c3f32840-1bb0-43d1-885a-85897e2fe45f,,500,500,fixation,,<div class = centerbox><div class = fixation>+</div></div>,none,500,test,,,,,,,,,,,603,71,poldrack-categorize,508,758606,0.0-507.0,c3f32840-1bb0-43d1-885a-85897e2fe45f,,1500,250,stim,,"<div class = centerbox><div class = stroop-stim style = ""color:green"">RED</div></div>","66,71,82",1500,test,,,incongruent,TRUE,71,,,500,green,red,-1,-1,poldrack-single-stim,509,759361,0.0-508.0,c3f32840-1bb0-43d1-885a-85897e2fe45f,,500,500,fixation,,<div class = centerbox><div class = fixation>+</div></div>,none,500,test,,,,,,,,,,,519,66,poldrack-categorize,510,761871,0.0-509.0,c3f32840-1bb0-43d1-885a-85897e2fe45f,,1500,250,stim,,"<div class = centerbox><div class = stroop-stim style = ""color:blue"">RED</div></div>","66,71,82",1500,test,,,incongruent,TRUE,66,,,500,blue,red,-1,-1,poldrack-single-stim,511,762630,0.0-510.0,c3f32840-1bb0-43d1-885a-85897e2fe45f,,500,500,fixation,,<div class = centerbox><div class = fixation>+</div></div>,none,500,test,,,,,,,,,,,592,82,poldrack-categorize,512,765143,0.0-511.0,c3f32840-1bb0-43d1-885a-85897e2fe45f,,1500,250,stim,,"<div class = centerbox><div class = stroop-stim style = ""color:red"">RED</div></div>","66,71,82",1500,test,,,congruent,TRUE,82,,,500,red,red,-1,-1,poldrack-single-stim,513,765904,0.0-512.0,c3f32840-1bb0-43d1-885a-85897e2fe45f,,500,500,fixation,,<div class = centerbox><div class = fixation>+</div></div>,none,500,test,,,,,,,,,,,772,82,poldrack-categorize,514,768417,0.0-513.0,c3f32840-1bb0-43d1-885a-85897e2fe45f,,1500,250,stim,,"<div class = centerbox><div class = stroop-stim style = ""color:red"">BLUE</div></div>","66,71,82",1500,test,,,incongruent,TRUE,82,,,500,red,blue,-1,-1,poldrack-single-stim,515,769177,0.0-514.0,c3f32840-1bb0-43d1-885a-85897e2fe45f,,500,500,fixation,,<div class = centerbox><div class = fixation>+</div></div>,none,500,test,,,,,,,,,,,865,82,poldrack-categorize,516,771685,0.0-515.0,c3f32840-1bb0-43d1-885a-85897e2fe45f,,1500,250,stim,,"<div class = centerbox><div class = stroop-stim style = ""color:red"">RED</div></div>","66,71,82",1500,test,,,congruent,TRUE,82,,,500,red,red,-1,-1,poldrack-single-stim,517,772440,0.0-516.0,c3f32840-1bb0-43d1-885a-85897e2fe45f,,500,500,fixation,,<div class = centerbox><div class = fixation>+</div></div>,none,500,test,,,,,,,,,,,709,82,poldrack-categorize,518,774947,0.0-517.0,c3f32840-1bb0-43d1-885a-85897e2fe45f,,1500,250,stim,,"<div class = centerbox><div class = stroop-stim style = ""color:red"">GREEN</div></div>","66,71,82",1500,test,,,incongruent,TRUE,82,,,500,red,green,-1,-1,poldrack-single-stim,519,775708,0.0-518.0,c3f32840-1bb0-43d1-885a-85897e2fe45f,,500,500,fixation,,<div class = centerbox><div class = fixation>+</div></div>,none,500,test,,,,,,,,,,,632,82,poldrack-categorize,520,778217,0.0-519.0,c3f32840-1bb0-43d1-885a-85897e2fe45f,,1500,250,stim,,"<div class = centerbox><div class = stroop-stim style = ""color:red"">RED</div></div>","66,71,82",1500,test,,,congruent,TRUE,82,,,500,red,red,-1,-1,poldrack-single-stim,521,778976,0.0-520.0,c3f32840-1bb0-43d1-885a-85897e2fe45f,,500,500,fixation,,<div class = centerbox><div class = fixation>+</div></div>,none,500,test,,,,,,,,,,,548,71,poldrack-categorize,522,781490,0.0-521.0,c3f32840-1bb0-43d1-885a-85897e2fe45f,,1500,250,stim,,"<div class = centerbox><div class = stroop-stim style = ""color:green"">GREEN</div></div>","66,71,82",1500,test,,,congruent,TRUE,71,,,500,green,green,-1,-1,poldrack-single-stim,523,782250,0.0-522.0,c3f32840-1bb0-43d1-885a-85897e2fe45f,,500,500,fixation,,<div class = centerbox><div class = fixation>+</div></div>,none,500,test,,,,,,,,,,,942,82,poldrack-categorize,524,784764,0.0-523.0,c3f32840-1bb0-43d1-885a-85897e2fe45f,,1500,250,stim,,"<div class = centerbox><div class = stroop-stim style = ""color:red"">BLUE</div></div>","66,71,82",1500,test,,,incongruent,TRUE,82,,,500,red,blue,-1,-1,poldrack-single-stim,525,785519,0.0-524.0,c3f32840-1bb0-43d1-885a-85897e2fe45f,,500,500,fixation,,<div class = centerbox><div class = fixation>+</div></div>,none,500,test,,,,,,,,,,,970,71,poldrack-categorize,526,788032,0.0-525.0,c3f32840-1bb0-43d1-885a-85897e2fe45f,,1500,250,stim,,"<div class = centerbox><div class = stroop-stim style = ""color:green"">RED</div></div>","66,71,82",1500,test,,,incongruent,TRUE,71,,,500,green,red,-1,-1,poldrack-single-stim,527,788792,0.0-526.0,c3f32840-1bb0-43d1-885a-85897e2fe45f,,500,500,fixation,,<div class = centerbox><div class = fixation>+</div></div>,none,500,test,,,,,,,,,,,489,71,poldrack-categorize,528,791300,0.0-527.0,c3f32840-1bb0-43d1-885a-85897e2fe45f,,1500,250,stim,,"<div class = centerbox><div class = stroop-stim style = ""color:green"">RED</div></div>","66,71,82",1500,test,,,incongruent,TRUE,71,,,500,green,red,-1,-1,poldrack-single-stim,529,792055,0.0-528.0,c3f32840-1bb0-43d1-885a-85897e2fe45f,,500,500,fixation,,<div class = centerbox><div class = fixation>+</div></div>,none,500,test,,,,,,,,,,,848,82,poldrack-categorize,530,794568,0.0-529.0,c3f32840-1bb0-43d1-885a-85897e2fe45f,,1500,250,stim,,"<div class = centerbox><div class = stroop-stim style = ""color:red"">RED</div></div>","66,71,82",1500,test,,,congruent,TRUE,82,,,500,red,red,-1,-1,poldrack-single-stim,531,795325,0.0-530.0,c3f32840-1bb0-43d1-885a-85897e2fe45f,,500,500,fixation,,<div class = centerbox><div class = fixation>+</div></div>,none,500,test,,,,,,,,,,,591,82,poldrack-categorize,532,797837,0.0-531.0,c3f32840-1bb0-43d1-885a-85897e2fe45f,,1500,250,stim,,"<div class = centerbox><div class = stroop-stim style = ""color:red"">RED</div></div>","66,71,82",1500,test,,,congruent,TRUE,82,,,500,red,red,-1,-1,poldrack-single-stim,533,798597,0.0-532.0,c3f32840-1bb0-43d1-885a-85897e2fe45f,,500,500,fixation,,<div class = centerbox><div class = fixation>+</div></div>,none,500,test,,,,,,,,,,,661,71,poldrack-categorize,534,801111,0.0-533.0,c3f32840-1bb0-43d1-885a-85897e2fe45f,,1500,250,stim,,"<div class = centerbox><div class = stroop-stim style = ""color:green"">GREEN</div></div>","66,71,82",1500,test,,,congruent,TRUE,71,,,500,green,green,-1,-1,poldrack-single-stim,535,801865,0.0-534.0,c3f32840-1bb0-43d1-885a-85897e2fe45f,,500,500,fixation,,<div class = centerbox><div class = fixation>+</div></div>,none,500,test,,,,,,,,,,,644,71,poldrack-categorize,536,804379,0.0-535.0,c3f32840-1bb0-43d1-885a-85897e2fe45f,,1500,250,stim,,"<div class = centerbox><div class = stroop-stim style = ""color:green"">GREEN</div></div>","66,71,82",1500,test,,,congruent,TRUE,71,,,500,green,green,-1,-1,poldrack-single-stim,537,805139,0.0-536.0,c3f32840-1bb0-43d1-885a-85897e2fe45f,,500,500,fixation,,<div class = centerbox><div class = fixation>+</div></div>,none,500,test,,,,,,,,,,,779,82,poldrack-categorize,538,807653,0.0-537.0,c3f32840-1bb0-43d1-885a-85897e2fe45f,,1500,250,stim,,"<div class = centerbox><div class = stroop-stim style = ""color:red"">RED</div></div>","66,71,82",1500,test,,,congruent,TRUE,82,,,500,red,red,-1,-1,poldrack-single-stim,539,808413,0.0-538.0,c3f32840-1bb0-43d1-885a-85897e2fe45f,,500,500,fixation,,<div class = centerbox><div class = fixation>+</div></div>,none,500,test,,,,,,,,,,,535,66,poldrack-categorize,540,810921,0.0-539.0,c3f32840-1bb0-43d1-885a-85897e2fe45f,,1500,250,stim,,"<div class = centerbox><div class = stroop-stim style = ""color:blue"">BLUE</div></div>","66,71,82",1500,test,,,congruent,TRUE,66,,,500,blue,blue,-1,-1,poldrack-single-stim,541,811681,0.0-540.0,c3f32840-1bb0-43d1-885a-85897e2fe45f,,500,500,fixation,,<div class = centerbox><div class = fixation>+</div></div>,none,500,test,,,,,,,,,,,920,71,poldrack-categorize,542,814195,0.0-541.0,c3f32840-1bb0-43d1-885a-85897e2fe45f,,1500,250,stim,,"<div class = centerbox><div class = stroop-stim style = ""color:green"">BLUE</div></div>","66,71,82",1500,test,,,incongruent,TRUE,71,,,500,green,blue,-1,-1,poldrack-single-stim,543,814956,0.0-542.0,c3f32840-1bb0-43d1-885a-85897e2fe45f,,500,500,fixation,,<div class = centerbox><div class = fixation>+</div></div>,none,500,test,,,,,,,,,,,729,82,poldrack-categorize,544,817469,0.0-543.0,c3f32840-1bb0-43d1-885a-85897e2fe45f,,1500,250,stim,,"<div class = centerbox><div class = stroop-stim style = ""color:red"">BLUE</div></div>","66,71,82",1500,test,,,incongruent,TRUE,82,,,500,red,blue,-1,-1,poldrack-single-stim,545,818230,0.0-544.0,c3f32840-1bb0-43d1-885a-85897e2fe45f,,500,500,fixation,,<div class = centerbox><div class = fixation>+</div></div>,none,500,test,,,,,,,,,,,965,71,poldrack-categorize,546,820743,0.0-545.0,c3f32840-1bb0-43d1-885a-85897e2fe45f,,1500,250,stim,,"<div class = centerbox><div class = stroop-stim style = ""color:green"">RED</div></div>","66,71,82",1500,test,,,incongruent,TRUE,71,,,500,green,red,-1,-1,poldrack-single-stim,547,821498,0.0-546.0,c3f32840-1bb0-43d1-885a-85897e2fe45f,,500,500,fixation,,<div class = centerbox><div class = fixation>+</div></div>,none,500,test,,,,,,,,,,,580,71,poldrack-categorize,548,824005,0.0-547.0,c3f32840-1bb0-43d1-885a-85897e2fe45f,,1500,250,stim,,"<div class = centerbox><div class = stroop-stim style = ""color:green"">RED</div></div>","66,71,82",1500,test,,,incongruent,TRUE,71,,,500,green,red,-1,-1,poldrack-single-stim,549,824766,0.0-548.0,c3f32840-1bb0-43d1-885a-85897e2fe45f,,500,500,fixation,,<div class = centerbox><div class = fixation>+</div></div>,none,500,test,,,,,,,,,,,762,82,poldrack-categorize,550,827279,0.0-549.0,c3f32840-1bb0-43d1-885a-85897e2fe45f,,1500,250,stim,,"<div class = centerbox><div class = stroop-stim style = ""color:red"">RED</div></div>","66,71,82",1500,test,,,congruent,TRUE,82,,,500,red,red,-1,-1,poldrack-single-stim,551,828040,0.0-550.0,c3f32840-1bb0-43d1-885a-85897e2fe45f,,500,500,fixation,,<div class = centerbox><div class = fixation>+</div></div>,none,500,test,,,,,,,,,,,436,71,poldrack-categorize,552,830553,0.0-551.0,c3f32840-1bb0-43d1-885a-85897e2fe45f,,1500,250,stim,,"<div class = centerbox><div class = stroop-stim style = ""color:green"">GREEN</div></div>","66,71,82",1500,test,,,congruent,TRUE,71,,,500,green,green,-1,-1,poldrack-single-stim,553,831308,0.0-552.0,c3f32840-1bb0-43d1-885a-85897e2fe45f,,500,500,fixation,,<div class = centerbox><div class = fixation>+</div></div>,none,500,test,,,,,,,,,,,567,82,poldrack-categorize,554,833816,0.0-553.0,c3f32840-1bb0-43d1-885a-85897e2fe45f,,1500,250,stim,,"<div class = centerbox><div class = stroop-stim style = ""color:red"">RED</div></div>","66,71,82",1500,test,,,congruent,TRUE,82,,,500,red,red,-1,-1,poldrack-single-stim,555,834576,0.0-554.0,c3f32840-1bb0-43d1-885a-85897e2fe45f,,500,500,fixation,,<div class = centerbox><div class = fixation>+</div></div>,none,500,test,,,,,,,,,,,1135,82,poldrack-categorize,556,837090,0.0-555.0,c3f32840-1bb0-43d1-885a-85897e2fe45f,,1500,250,stim,,"<div class = centerbox><div class = stroop-stim style = ""color:red"">BLUE</div></div>","66,71,82",1500,test,,,incongruent,TRUE,82,,,500,red,blue,-1,-1,poldrack-single-stim,557,837850,0.0-556.0,c3f32840-1bb0-43d1-885a-85897e2fe45f,,500,500,fixation,,<div class = centerbox><div class = fixation>+</div></div>,none,500,test,,,,,,,,,,,583,66,poldrack-categorize,558,840364,0.0-557.0,c3f32840-1bb0-43d1-885a-85897e2fe45f,,1500,250,stim,,"<div class = centerbox><div class = stroop-stim style = ""color:blue"">BLUE</div></div>","66,71,82",1500,test,,,congruent,TRUE,66,,,500,blue,blue,-1,-1,poldrack-single-stim,559,841119,0.0-558.0,c3f32840-1bb0-43d1-885a-85897e2fe45f,,500,500,fixation,,<div class = centerbox><div class = fixation>+</div></div>,none,500,test,,,,,,,,,,,735,82,poldrack-categorize,560,843632,0.0-559.0,c3f32840-1bb0-43d1-885a-85897e2fe45f,,1500,250,stim,,"<div class = centerbox><div class = stroop-stim style = ""color:red"">GREEN</div></div>","66,71,82",1500,test,,,incongruent,TRUE,82,,,500,red,green,-1,-1,poldrack-single-stim,561,844393,0.0-560.0,c3f32840-1bb0-43d1-885a-85897e2fe45f,,500,500,fixation,,<div class = centerbox><div class = fixation>+</div></div>,none,500,test,,,,,,,,,,,600,82,poldrack-categorize,562,846906,0.0-561.0,c3f32840-1bb0-43d1-885a-85897e2fe45f,,1500,250,stim,,"<div class = centerbox><div class = stroop-stim style = ""color:red"">BLUE</div></div>","66,71,82",1500,test,,,incongruent,TRUE,82,,,500,red,blue,-1,-1,poldrack-single-stim,563,847667,0.0-562.0,c3f32840-1bb0-43d1-885a-85897e2fe45f,,500,500,fixation,,<div class = centerbox><div class = fixation>+</div></div>,none,500,test,,,,,,,,,,,679,66,poldrack-categorize,564,850180,0.0-563.0,c3f32840-1bb0-43d1-885a-85897e2fe45f,,1500,250,stim,,"<div class = centerbox><div class = stroop-stim style = ""color:blue"">BLUE</div></div>","66,71,82",1500,test,,,congruent,TRUE,66,,,500,blue,blue,-1,-1,poldrack-single-stim,565,850941,0.0-564.0,c3f32840-1bb0-43d1-885a-85897e2fe45f,,500,500,fixation,,<div class = centerbox><div class = fixation>+</div></div>,none,500,test,,,,,,,,,,,802,66,poldrack-categorize,566,853454,0.0-565.0,c3f32840-1bb0-43d1-885a-85897e2fe45f,,1500,250,stim,,"<div class = centerbox><div class = stroop-stim style = ""color:blue"">BLUE</div></div>","66,71,82",1500,test,,,congruent,TRUE,66,,,500,blue,blue,-1,-1,poldrack-single-stim,567,854215,0.0-566.0,c3f32840-1bb0-43d1-885a-85897e2fe45f,,500,500,fixation,,<div class = centerbox><div class = fixation>+</div></div>,none,500,test,,,,,,,,,,,588,82,poldrack-categorize,568,856728,0.0-567.0,c3f32840-1bb0-43d1-885a-85897e2fe45f,,1500,250,stim,,"<div class = centerbox><div class = stroop-stim style = ""color:red"">RED</div></div>","66,71,82",1500,test,,,congruent,TRUE,82,,,500,red,red,-1,-1,poldrack-single-stim,569,857483,0.0-568.0,c3f32840-1bb0-43d1-885a-85897e2fe45f,,500,500,fixation,,<div class = centerbox><div class = fixation>+</div></div>,none,500,test,,,,,,,,,,,538,71,poldrack-categorize,570,859991,0.0-569.0,c3f32840-1bb0-43d1-885a-85897e2fe45f,,1500,250,stim,,"<div class = centerbox><div class = stroop-stim style = ""color:green"">GREEN</div></div>","66,71,82",1500,test,,,congruent,TRUE,71,,,500,green,green,-1,-1,poldrack-single-stim,571,860751,0.0-570.0,c3f32840-1bb0-43d1-885a-85897e2fe45f,,500,500,fixation,,<div class = centerbox><div class = fixation>+</div></div>,none,500,test,,,,,,,,,,,1051,66,poldrack-categorize,572,863265,0.0-571.0,c3f32840-1bb0-43d1-885a-85897e2fe45f,,1500,250,stim,,"<div class = centerbox><div class = stroop-stim style = ""color:blue"">GREEN</div></div>","66,71,82",1500,test,,,incongruent,TRUE,66,,,500,blue,green,-1,-1,poldrack-single-stim,573,864022,0.0-572.0,c3f32840-1bb0-43d1-885a-85897e2fe45f,,500,500,fixation,,<div class = centerbox><div class = fixation>+</div></div>,none,500,test,,,,,,,,,,,505,71,poldrack-categorize,574,866527,0.0-573.0,c3f32840-1bb0-43d1-885a-85897e2fe45f,,1500,250,stim,,"<div class = centerbox><div class = stroop-stim style = ""color:green"">BLUE</div></div>","66,71,82",1500,test,,,incongruent,TRUE,71,,,500,green,blue,-1,-1,poldrack-single-stim,575,867288,0.0-574.0,c3f32840-1bb0-43d1-885a-85897e2fe45f,,500,500,fixation,,<div class = centerbox><div class = fixation>+</div></div>,none,500,test,,,,,,,,,,,905,66,poldrack-categorize,576,869797,0.0-575.0,c3f32840-1bb0-43d1-885a-85897e2fe45f,,1500,250,stim,,"<div class = centerbox><div class = stroop-stim style = ""color:blue"">BLUE</div></div>","66,71,82",1500,test,,,congruent,TRUE,66,,,500,blue,blue,-1,-1,poldrack-single-stim,577,870556,0.0-576.0,c3f32840-1bb0-43d1-885a-85897e2fe45f,,500,500,fixation,,<div class = centerbox><div class = fixation>+</div></div>,none,500,test,,,,,,,,,,,809,66,poldrack-categorize,578,873069,0.0-577.0,c3f32840-1bb0-43d1-885a-85897e2fe45f,,1500,250,stim,,"<div class = centerbox><div class = stroop-stim style = ""color:blue"">RED</div></div>","66,71,82",1500,test,,,incongruent,TRUE,66,,,500,blue,red,-1,-1,poldrack-single-stim,579,873830,0.0-578.0,c3f32840-1bb0-43d1-885a-85897e2fe45f,,500,500,fixation,,<div class = centerbox><div class = fixation>+</div></div>,none,500,test,,,,,,,,,,,1090,71,poldrack-categorize,580,876343,0.0-579.0,c3f32840-1bb0-43d1-885a-85897e2fe45f,,1500,250,stim,,"<div class = centerbox><div class = stroop-stim style = ""color:green"">BLUE</div></div>","66,71,82",1500,test,,,incongruent,TRUE,71,,,500,green,blue,-1,-1,poldrack-single-stim,581,877104,0.0-580.0,c3f32840-1bb0-43d1-885a-85897e2fe45f,,500,500,fixation,,<div class = centerbox><div class = fixation>+</div></div>,none,500,test,,,,,,,,,,,519,71,poldrack-categorize,582,879611,0.0-581.0,c3f32840-1bb0-43d1-885a-85897e2fe45f,,1500,250,stim,,"<div class = centerbox><div class = stroop-stim style = ""color:green"">GREEN</div></div>","66,71,82",1500,test,,,congruent,TRUE,71,,,500,green,green,-1,-1,poldrack-single-stim,583,880372,0.0-582.0,c3f32840-1bb0-43d1-885a-85897e2fe45f,,500,500,fixation,,<div class = centerbox><div class = fixation>+</div></div>,none,500,test,,,,,,,,,,,691,82,poldrack-categorize,584,882886,0.0-583.0,c3f32840-1bb0-43d1-885a-85897e2fe45f,,1500,250,stim,,"<div class = centerbox><div class = stroop-stim style = ""color:red"">GREEN</div></div>","66,71,82",1500,test,,,incongruent,TRUE,82,,,500,red,green,-1,-1,poldrack-single-stim,585,883646,0.0-584.0,c3f32840-1bb0-43d1-885a-85897e2fe45f,,500,500,fixation,,<div class = centerbox><div class = fixation>+</div></div>,none,500,test,,,,,,,,,,,961,66,poldrack-categorize,586,886159,0.0-585.0,c3f32840-1bb0-43d1-885a-85897e2fe45f,,1500,250,stim,,"<div class = centerbox><div class = stroop-stim style = ""color:blue"">GREEN</div></div>","66,71,82",1500,test,,,incongruent,TRUE,66,,,500,blue,green,-1,-1,poldrack-single-stim,587,886914,0.0-586.0,c3f32840-1bb0-43d1-885a-85897e2fe45f,,500,500,fixation,,<div class = centerbox><div class = fixation>+</div></div>,none,500,test,,,,,,,,,,,472,71,poldrack-categorize,588,889428,0.0-587.0,c3f32840-1bb0-43d1-885a-85897e2fe45f,,1500,250,stim,,"<div class = centerbox><div class = stroop-stim style = ""color:green"">RED</div></div>","66,71,82",1500,test,,,incongruent,TRUE,71,,,500,green,red,-1,-1,poldrack-single-stim,589,890188,0.0-588.0,c3f32840-1bb0-43d1-885a-85897e2fe45f,,500,500,fixation,,<div class = centerbox><div class = fixation>+</div></div>,none,500,test,,,,,,,,,,,573,66,poldrack-categorize,590,892700,0.0-589.0,c3f32840-1bb0-43d1-885a-85897e2fe45f,,1500,250,stim,,"<div class = centerbox><div class = stroop-stim style = ""color:blue"">BLUE</div></div>","66,71,82",1500,test,,,congruent,TRUE,66,,,500,blue,blue,-1,-1,poldrack-single-stim,591,893457,0.0-590.0,c3f32840-1bb0-43d1-885a-85897e2fe45f,,500,500,fixation,,<div class = centerbox><div class = fixation>+</div></div>,none,500,test,,,,,,,,,,,669,66,poldrack-categorize,592,895968,0.0-591.0,c3f32840-1bb0-43d1-885a-85897e2fe45f,,1500,250,stim,,"<div class = centerbox><div class = stroop-stim style = ""color:blue"">RED</div></div>","66,71,82",1500,test,,,incongruent,TRUE,66,,,500,blue,red,-1,-1,poldrack-single-stim,593,896725,0.0-592.0,c3f32840-1bb0-43d1-885a-85897e2fe45f,,500,500,fixation,,<div class = centerbox><div class = fixation>+</div></div>,none,500,test,,,,,,,,,,,743,71,poldrack-categorize,594,899232,0.0-593.0,c3f32840-1bb0-43d1-885a-85897e2fe45f,,1500,250,stim,,"<div class = centerbox><div class = stroop-stim style = ""color:green"">BLUE</div></div>","66,71,82",1500,test,,,incongruent,TRUE,71,,,500,green,blue,-1,-1,poldrack-single-stim,595,899993,0.0-594.0,c3f32840-1bb0-43d1-885a-85897e2fe45f,,500,500,fixation,,<div class = centerbox><div class = fixation>+</div></div>,none,500,test,,,,,,,,,,,579,71,poldrack-categorize,596,902506,0.0-595.0,c3f32840-1bb0-43d1-885a-85897e2fe45f,,1500,250,stim,,"<div class = centerbox><div class = stroop-stim style = ""color:green"">GREEN</div></div>","66,71,82",1500,test,,,congruent,TRUE,71,,,500,green,green,-1,-1,poldrack-single-stim,597,903267,0.0-596.0,c3f32840-1bb0-43d1-885a-85897e2fe45f,,500,500,fixation,,<div class = centerbox><div class = fixation>+</div></div>,none,500,test,,,,,,,,,,,669,82,poldrack-categorize,598,905780,0.0-597.0,c3f32840-1bb0-43d1-885a-85897e2fe45f,,1500,250,stim,,"<div class = centerbox><div class = stroop-stim style = ""color:red"">RED</div></div>","66,71,82",1500,test,,,congruent,TRUE,82,,,500,red,red,-1,-1,poldrack-single-stim,599,906541,0.0-598.0,c3f32840-1bb0-43d1-885a-85897e2fe45f,,500,500,fixation,,<div class = centerbox><div class = fixation>+</div></div>,none,500,test,,,,,,,,,,,467,66,poldrack-categorize,600,909054,0.0-599.0,c3f32840-1bb0-43d1-885a-85897e2fe45f,,1500,250,stim,,"<div class = centerbox><div class = stroop-stim style = ""color:blue"">BLUE</div></div>","66,71,82",1500,test,,,congruent,TRUE,66,,,500,blue,blue,-1,-1,poldrack-single-stim,601,909811,0.0-600.0,c3f32840-1bb0-43d1-885a-85897e2fe45f,,500,500,fixation,,<div class = centerbox><div class = fixation>+</div></div>,none,500,test,,,,,,,,,,,482,71,poldrack-categorize,602,912323,0.0-601.0,c3f32840-1bb0-43d1-885a-85897e2fe45f,,1500,250,stim,,"<div class = centerbox><div class = stroop-stim style = ""color:green"">GREEN</div></div>","66,71,82",1500,test,,,congruent,TRUE,71,,,500,green,green,-1,-1,poldrack-single-stim,603,913083,0.0-602.0,c3f32840-1bb0-43d1-885a-85897e2fe45f,,500,500,fixation,,<div class = centerbox><div class = fixation>+</div></div>,none,500,test,,,,,,,,,,,585,71,poldrack-categorize,604,915597,0.0-603.0,c3f32840-1bb0-43d1-885a-85897e2fe45f,,1500,250,stim,,"<div class = centerbox><div class = stroop-stim style = ""color:green"">RED</div></div>","66,71,82",1500,test,,,incongruent,TRUE,71,,,500,green,red,-1,-1,poldrack-single-stim,605,916357,0.0-604.0,c3f32840-1bb0-43d1-885a-85897e2fe45f,,500,500,fixation,,<div class = centerbox><div class = fixation>+</div></div>,none,500,test,,,,,,,,,,,1071,66,poldrack-categorize,606,918871,0.0-605.0,c3f32840-1bb0-43d1-885a-85897e2fe45f,,1500,250,stim,,"<div class = centerbox><div class = stroop-stim style = ""color:blue"">GREEN</div></div>","66,71,82",1500,test,,,incongruent,TRUE,66,,,500,blue,green,-1,-1,poldrack-single-stim,607,919631,0.0-606.0,c3f32840-1bb0-43d1-885a-85897e2fe45f,,500,500,fixation,,<div class = centerbox><div class = fixation>+</div></div>,none,500,test,,,,,,,,,,,574,82,poldrack-categorize,608,922145,0.0-607.0,c3f32840-1bb0-43d1-885a-85897e2fe45f,,1500,250,stim,,"<div class = centerbox><div class = stroop-stim style = ""color:red"">RED</div></div>","66,71,82",1500,test,,,congruent,TRUE,82,,,500,red,red,-1,-1,poldrack-single-stim,609,922905,0.0-608.0,c3f32840-1bb0-43d1-885a-85897e2fe45f,,500,500,fixation,,<div class = centerbox><div class = fixation>+</div></div>,none,500,test,,,,,,,,,,,540,66,poldrack-categorize,610,925419,0.0-609.0,c3f32840-1bb0-43d1-885a-85897e2fe45f,,1500,250,stim,,"<div class = centerbox><div class = stroop-stim style = ""color:blue"">RED</div></div>","66,71,82",1500,test,,,incongruent,TRUE,66,,,500,blue,red,-1,-1,poldrack-single-stim,611,926176,0.0-610.0,c3f32840-1bb0-43d1-885a-85897e2fe45f,,500,500,fixation,,<div class = centerbox><div class = fixation>+</div></div>,none,500,test,,,,,,,,,,,535,71,poldrack-categorize,612,928687,0.0-611.0,c3f32840-1bb0-43d1-885a-85897e2fe45f,,1500,250,stim,,"<div class = centerbox><div class = stroop-stim style = ""color:green"">GREEN</div></div>","66,71,82",1500,test,,,congruent,TRUE,71,,,500,green,green,-1,-1,poldrack-single-stim,613,929445,0.0-612.0,c3f32840-1bb0-43d1-885a-85897e2fe45f,,500,500,fixation,,<div class = centerbox><div class = fixation>+</div></div>,none,500,test,,,,,,,,,,,552,66,poldrack-categorize,614,931951,0.0-613.0,c3f32840-1bb0-43d1-885a-85897e2fe45f,,1500,250,stim,,"<div class = centerbox><div class = stroop-stim style = ""color:blue"">BLUE</div></div>","66,71,82",1500,test,,,congruent,TRUE,66,,,500,blue,blue,-1,-1,poldrack-single-stim,615,932710,0.0-614.0,c3f32840-1bb0-43d1-885a-85897e2fe45f,,500,500,fixation,,<div class = centerbox><div class = fixation>+</div></div>,none,500,test,,,,,,,,,,,749,71,poldrack-categorize,616,935223,0.0-615.0,c3f32840-1bb0-43d1-885a-85897e2fe45f,,1500,250,stim,,"<div class = centerbox><div class = stroop-stim style = ""color:green"">BLUE</div></div>","66,71,82",1500,test,,,incongruent,TRUE,71,,,500,green,blue,-1,-1,poldrack-single-stim,617,935979,0.0-616.0,c3f32840-1bb0-43d1-885a-85897e2fe45f,,500,500,fixation,,<div class = centerbox><div class = fixation>+</div></div>,none,500,test,,,,,,,,,,,718,82,poldrack-categorize,618,938491,0.0-617.0,c3f32840-1bb0-43d1-885a-85897e2fe45f,,1500,250,stim,,"<div class = centerbox><div class = stroop-stim style = ""color:red"">GREEN</div></div>","66,71,82",1500,test,,,incongruent,TRUE,82,,,500,red,green,-1,-1,poldrack-single-stim,619,939252,0.0-618.0,c3f32840-1bb0-43d1-885a-85897e2fe45f,,500,500,fixation,,<div class = centerbox><div class = fixation>+</div></div>,none,500,test,,,,,,,,,,,529,71,poldrack-categorize,620,941765,0.0-619.0,c3f32840-1bb0-43d1-885a-85897e2fe45f,,1500,250,stim,,"<div class = centerbox><div class = stroop-stim style = ""color:green"">BLUE</div></div>","66,71,82",1500,test,,,incongruent,TRUE,71,,,500,green,blue,-1,-1,poldrack-single-stim,621,942526,0.0-620.0,c3f32840-1bb0-43d1-885a-85897e2fe45f,,500,500,fixation,,<div class = centerbox><div class = fixation>+</div></div>,none,500,test,,,,,,,,,,,496,71,poldrack-categorize,622,945039,0.0-621.0,c3f32840-1bb0-43d1-885a-85897e2fe45f,,1500,250,stim,,"<div class = centerbox><div class = stroop-stim style = ""color:green"">RED</div></div>","66,71,82",1500,test,,,incongruent,TRUE,71,,,500,green,red,-1,-1,poldrack-single-stim,623,945800,0.0-622.0,c3f32840-1bb0-43d1-885a-85897e2fe45f,,500,500,fixation,,<div class = centerbox><div class = fixation>+</div></div>,none,500,test,,,,,,,,,,,633,66,poldrack-categorize,624,948314,0.0-623.0,c3f32840-1bb0-43d1-885a-85897e2fe45f,,1500,250,stim,,"<div class = centerbox><div class = stroop-stim style = ""color:blue"">BLUE</div></div>","66,71,82",1500,test,,,congruent,TRUE,66,,,500,blue,blue,-1,-1,poldrack-single-stim,625,949074,0.0-624.0,c3f32840-1bb0-43d1-885a-85897e2fe45f,,500,500,fixation,,<div class = centerbox><div class = fixation>+</div></div>,none,500,test,,,,,,,,,,,1249,82,poldrack-categorize,626,951587,0.0-625.0,c3f32840-1bb0-43d1-885a-85897e2fe45f,,1500,250,stim,,"<div class = centerbox><div class = stroop-stim style = ""color:red"">GREEN</div></div>","66,71,82",1500,test,,,incongruent,TRUE,82,,,500,red,green,-1,-1,poldrack-single-stim,627,952345,0.0-626.0,c3f32840-1bb0-43d1-885a-85897e2fe45f,,500,500,fixation,,<div class = centerbox><div class = fixation>+</div></div>,none,500,test,,,,,,,,,,,938,66,poldrack-categorize,628,954856,0.0-627.0,c3f32840-1bb0-43d1-885a-85897e2fe45f,,1500,250,stim,,"<div class = centerbox><div class = stroop-stim style = ""color:blue"">GREEN</div></div>","66,71,82",1500,test,,,incongruent,TRUE,66,,,500,blue,green,-1,-1,poldrack-single-stim,629,955610,0.0-628.0,c3f32840-1bb0-43d1-885a-85897e2fe45f,,500,500,fixation,,<div class = centerbox><div class = fixation>+</div></div>,none,500,test,,,,,,,,,,,463,71,poldrack-categorize,630,958124,0.0-629.0,c3f32840-1bb0-43d1-885a-85897e2fe45f,,1500,250,stim,,"<div class = centerbox><div class = stroop-stim style = ""color:green"">GREEN</div></div>","66,71,82",1500,test,,,congruent,TRUE,71,,,500,green,green,-1,-1,poldrack-single-stim,631,958882,0.0-630.0,c3f32840-1bb0-43d1-885a-85897e2fe45f,,500,500,fixation,,<div class = centerbox><div class = fixation>+</div></div>,none,500,test,,,,,,,,,,,468,66,poldrack-categorize,632,961388,0.0-631.0,c3f32840-1bb0-43d1-885a-85897e2fe45f,,1500,250,stim,,"<div class = centerbox><div class = stroop-stim style = ""color:blue"">BLUE</div></div>","66,71,82",1500,test,,,congruent,TRUE,66,,,500,blue,blue,56625,,survey-text,633,1018268,0.0-633.0,c3f32840-1bb0-43d1-885a-85897e2fe45f,,,,post task questions,,,,,,,,,,,"{""Q0"":""i had to click R,B or G to correspond with the ink color i saw on the screen. R for red, G for green, and B for blue."",""Q1"":""""}",,,,,1951,13,poldrack-text,634,1021225,0.0-634.0,c3f32840-1bb0-43d1-885a-85897e2fe45f,<div class = centerbox><p class = center-block-text>Thanks for completing this task!</p><p class = center-block-text>Press <strong>enter</strong> to continue.</p></div>,1951,0,end,,,,,,,,,,,,stroop,,,,TRUE562477,13,text,635,1583749,0.0-635.0,c3f32840-1bb0-43d1-885a-85897e2fe45f,,,,,,,,,,,,,,,,,,,,