rt,key_press,trial_type,trial_index,time_elapsed,internal_node_id,subject,text,block_duration,timing_post_trial,trial_id,view_history,stimulus,possible_responses,stim_duration,exp_stage,correct,correct_response,feedback_duration,condition,stim_color,stim_word,responses,exp_id,credit_var,stim_place,stim_id3122,13,text,0,3124,0.0-0.0,5c24bc56-6a07-4103-a81b-d170bfbde171,,,,,,,,,,,,,,,,,,,,24021,13,poldrack-text,1,28149,0.0-1.0-0.0,5c24bc56-6a07-4103-a81b-d170bfbde171,<div class = centerbox><p class = center-block-text>Welcome to the experiment. This experiment will take about 8 minutes. Press <strong>enter</strong> to begin.</p></div>,24021,0,instruction,,,,,,,,,,,,,,,,52078,,poldrack-instructions,2,80228,0.0-1.0-1.0,5c24bc56-6a07-4103-a81b-d170bfbde171,,,,instruction,"[{""page_index"":0,""viewing_time"":52077}]",,,,,,,,,,,,,,,8714,13,poldrack-text,3,89948,0.0-2.0,5c24bc56-6a07-4103-a81b-d170bfbde171,"<div class = centerbox><p class = block-text>We will start with a few practice trials. Remember, press the key corresponding to the <strong>ink</strong> color of the word: ""r"" for words colored red, ""b"" for words colored blue, and ""g"" for words colored green.</p><p class = block-text>Press <strong>enter</strong> to begin practice.</p></div>",8714,1000,practice_intro,,,,,,,,,,,,,,,,-1,-1,poldrack-single-stim,4,91462,0.0-3.0,5c24bc56-6a07-4103-a81b-d170bfbde171,,500,500,fixation,,<div class = centerbox><div class = fixation>+</div></div>,none,500,practice,,,,,,,,,,,1096,71,poldrack-categorize,5,93971,0.0-4.0,5c24bc56-6a07-4103-a81b-d170bfbde171,,1500,250,stim,,"<div class = centerbox><div class = stroop-stim style = ""color:green"">GREEN</div></div>","66,71,82",1500,practice,TRUE,71,500,congruent,green,green,,,,,-1,-1,poldrack-single-stim,6,94729,0.0-5.0,5c24bc56-6a07-4103-a81b-d170bfbde171,,500,500,fixation,,<div class = centerbox><div class = fixation>+</div></div>,none,500,practice,,,,,,,,,,,899,66,poldrack-categorize,7,97243,0.0-6.0,5c24bc56-6a07-4103-a81b-d170bfbde171,,1500,250,stim,,"<div class = centerbox><div class = stroop-stim style = ""color:blue"">RED</div></div>","66,71,82",1500,practice,TRUE,66,500,incongruent,blue,red,,,,,-1,-1,poldrack-single-stim,8,98001,0.0-7.0,5c24bc56-6a07-4103-a81b-d170bfbde171,,500,500,fixation,,<div class = centerbox><div class = fixation>+</div></div>,none,500,practice,,,,,,,,,,,622,66,poldrack-categorize,9,100511,0.0-8.0,5c24bc56-6a07-4103-a81b-d170bfbde171,,1500,250,stim,,"<div class = centerbox><div class = stroop-stim style = ""color:blue"">BLUE</div></div>","66,71,82",1500,practice,TRUE,66,500,congruent,blue,blue,,,,,-1,-1,poldrack-single-stim,10,101268,0.0-9.0,5c24bc56-6a07-4103-a81b-d170bfbde171,,500,500,fixation,,<div class = centerbox><div class = fixation>+</div></div>,none,500,practice,,,,,,,,,,,463,82,poldrack-categorize,11,103779,0.0-10.0,5c24bc56-6a07-4103-a81b-d170bfbde171,,1500,250,stim,,"<div class = centerbox><div class = stroop-stim style = ""color:red"">RED</div></div>","66,71,82",1500,practice,TRUE,82,500,congruent,red,red,,,,,-1,-1,poldrack-single-stim,12,104537,0.0-11.0,5c24bc56-6a07-4103-a81b-d170bfbde171,,500,500,fixation,,<div class = centerbox><div class = fixation>+</div></div>,none,500,practice,,,,,,,,,,,685,71,poldrack-categorize,13,107041,0.0-12.0,5c24bc56-6a07-4103-a81b-d170bfbde171,,1500,250,stim,,"<div class = centerbox><div class = stroop-stim style = ""color:green"">RED</div></div>","66,71,82",1500,practice,TRUE,71,500,incongruent,green,red,,,,,-1,-1,poldrack-single-stim,14,107802,0.0-13.0,5c24bc56-6a07-4103-a81b-d170bfbde171,,500,500,fixation,,<div class = centerbox><div class = fixation>+</div></div>,none,500,practice,,,,,,,,,,,545,71,poldrack-categorize,15,110315,0.0-14.0,5c24bc56-6a07-4103-a81b-d170bfbde171,,1500,250,stim,,"<div class = centerbox><div class = stroop-stim style = ""color:green"">GREEN</div></div>","66,71,82",1500,practice,TRUE,71,500,congruent,green,green,,,,,-1,-1,poldrack-single-stim,16,111076,0.0-15.0,5c24bc56-6a07-4103-a81b-d170bfbde171,,500,500,fixation,,<div class = centerbox><div class = fixation>+</div></div>,none,500,practice,,,,,,,,,,,519,82,poldrack-categorize,17,113589,0.0-16.0,5c24bc56-6a07-4103-a81b-d170bfbde171,,1500,250,stim,,"<div class = centerbox><div class = stroop-stim style = ""color:red"">RED</div></div>","66,71,82",1500,practice,TRUE,82,500,congruent,red,red,,,,,-1,-1,poldrack-single-stim,18,114350,0.0-17.0,5c24bc56-6a07-4103-a81b-d170bfbde171,,500,500,fixation,,<div class = centerbox><div class = fixation>+</div></div>,none,500,practice,,,,,,,,,,,909,71,poldrack-categorize,19,116863,0.0-18.0,5c24bc56-6a07-4103-a81b-d170bfbde171,,1500,250,stim,,"<div class = centerbox><div class = stroop-stim style = ""color:red"">BLUE</div></div>","66,71,82",1500,practice,FALSE,82,500,incongruent,red,blue,,,,,-1,-1,poldrack-single-stim,20,117620,0.0-19.0,5c24bc56-6a07-4103-a81b-d170bfbde171,,500,500,fixation,,<div class = centerbox><div class = fixation>+</div></div>,none,500,practice,,,,,,,,,,,848,71,poldrack-categorize,21,120132,0.0-20.0,5c24bc56-6a07-4103-a81b-d170bfbde171,,1500,250,stim,,"<div class = centerbox><div class = stroop-stim style = ""color:green"">BLUE</div></div>","66,71,82",1500,practice,TRUE,71,500,incongruent,green,blue,,,,,-1,-1,poldrack-single-stim,22,120892,0.0-21.0,5c24bc56-6a07-4103-a81b-d170bfbde171,,500,500,fixation,,<div class = centerbox><div class = fixation>+</div></div>,none,500,practice,,,,,,,,,,,1126,71,poldrack-categorize,23,123406,0.0-22.0,5c24bc56-6a07-4103-a81b-d170bfbde171,,1500,250,stim,,"<div class = centerbox><div class = stroop-stim style = ""color:green"">RED</div></div>","66,71,82",1500,practice,TRUE,71,500,incongruent,green,red,,,,,-1,-1,poldrack-single-stim,24,124166,0.0-23.0,5c24bc56-6a07-4103-a81b-d170bfbde171,,500,500,fixation,,<div class = centerbox><div class = fixation>+</div></div>,none,500,practice,,,,,,,,,,,757,71,poldrack-categorize,25,126679,0.0-24.0,5c24bc56-6a07-4103-a81b-d170bfbde171,,1500,250,stim,,"<div class = centerbox><div class = stroop-stim style = ""color:green"">GREEN</div></div>","66,71,82",1500,practice,TRUE,71,500,congruent,green,green,,,,,-1,-1,poldrack-single-stim,26,127440,0.0-25.0,5c24bc56-6a07-4103-a81b-d170bfbde171,,500,500,fixation,,<div class = centerbox><div class = fixation>+</div></div>,none,500,practice,,,,,,,,,,,819,66,poldrack-categorize,27,129954,0.0-26.0,5c24bc56-6a07-4103-a81b-d170bfbde171,,1500,250,stim,,"<div class = centerbox><div class = stroop-stim style = ""color:blue"">BLUE</div></div>","66,71,82",1500,practice,TRUE,66,500,congruent,blue,blue,,,,,-1,-1,poldrack-single-stim,28,130708,0.0-27.0,5c24bc56-6a07-4103-a81b-d170bfbde171,,500,500,fixation,,<div class = centerbox><div class = fixation>+</div></div>,none,500,practice,,,,,,,,,,,607,66,poldrack-categorize,29,133220,0.0-28.0,5c24bc56-6a07-4103-a81b-d170bfbde171,,1500,250,stim,,"<div class = centerbox><div class = stroop-stim style = ""color:blue"">BLUE</div></div>","66,71,82",1500,practice,TRUE,66,500,congruent,blue,blue,,,,,-1,-1,poldrack-single-stim,30,133977,0.0-29.0,5c24bc56-6a07-4103-a81b-d170bfbde171,,500,500,fixation,,<div class = centerbox><div class = fixation>+</div></div>,none,500,practice,,,,,,,,,,,571,82,poldrack-categorize,31,136490,0.0-30.0,5c24bc56-6a07-4103-a81b-d170bfbde171,,1500,250,stim,,"<div class = centerbox><div class = stroop-stim style = ""color:red"">GREEN</div></div>","66,71,82",1500,practice,TRUE,82,500,incongruent,red,green,,,,,-1,-1,poldrack-single-stim,32,137247,0.0-31.0,5c24bc56-6a07-4103-a81b-d170bfbde171,,500,500,fixation,,<div class = centerbox><div class = fixation>+</div></div>,none,500,practice,,,,,,,,,,,534,82,poldrack-categorize,33,139758,0.0-32.0,5c24bc56-6a07-4103-a81b-d170bfbde171,,1500,250,stim,,"<div class = centerbox><div class = stroop-stim style = ""color:red"">RED</div></div>","66,71,82",1500,practice,TRUE,82,500,congruent,red,red,,,,,-1,-1,poldrack-single-stim,34,140519,0.0-33.0,5c24bc56-6a07-4103-a81b-d170bfbde171,,500,500,fixation,,<div class = centerbox><div class = fixation>+</div></div>,none,500,practice,,,,,,,,,,,636,66,poldrack-categorize,35,143027,0.0-34.0,5c24bc56-6a07-4103-a81b-d170bfbde171,,1500,250,stim,,"<div class = centerbox><div class = stroop-stim style = ""color:blue"">RED</div></div>","66,71,82",1500,practice,TRUE,66,500,incongruent,blue,red,,,,,-1,-1,poldrack-single-stim,36,143787,0.0-35.0,5c24bc56-6a07-4103-a81b-d170bfbde171,,500,500,fixation,,<div class = centerbox><div class = fixation>+</div></div>,none,500,practice,,,,,,,,,,,552,71,poldrack-categorize,37,146300,0.0-36.0,5c24bc56-6a07-4103-a81b-d170bfbde171,,1500,250,stim,,"<div class = centerbox><div class = stroop-stim style = ""color:green"">GREEN</div></div>","66,71,82",1500,practice,TRUE,71,500,congruent,green,green,,,,,-1,-1,poldrack-single-stim,38,147061,0.0-37.0,5c24bc56-6a07-4103-a81b-d170bfbde171,,500,500,fixation,,<div class = centerbox><div class = fixation>+</div></div>,none,500,practice,,,,,,,,,,,590,82,poldrack-categorize,39,149575,0.0-38.0,5c24bc56-6a07-4103-a81b-d170bfbde171,,1500,250,stim,,"<div class = centerbox><div class = stroop-stim style = ""color:red"">RED</div></div>","66,71,82",1500,practice,TRUE,82,500,congruent,red,red,,,,,-1,-1,poldrack-single-stim,40,150335,0.0-39.0,5c24bc56-6a07-4103-a81b-d170bfbde171,,500,500,fixation,,<div class = centerbox><div class = fixation>+</div></div>,none,500,practice,,,,,,,,,,,499,66,poldrack-categorize,41,152849,0.0-40.0,5c24bc56-6a07-4103-a81b-d170bfbde171,,1500,250,stim,,"<div class = centerbox><div class = stroop-stim style = ""color:blue"">GREEN</div></div>","66,71,82",1500,practice,TRUE,66,500,incongruent,blue,green,,,,,-1,-1,poldrack-single-stim,42,153609,0.0-41.0,5c24bc56-6a07-4103-a81b-d170bfbde171,,500,500,fixation,,<div class = centerbox><div class = fixation>+</div></div>,none,500,practice,,,,,,,,,,,546,66,poldrack-categorize,43,156124,0.0-42.0,5c24bc56-6a07-4103-a81b-d170bfbde171,,1500,250,stim,,"<div class = centerbox><div class = stroop-stim style = ""color:blue"">GREEN</div></div>","66,71,82",1500,practice,TRUE,66,500,incongruent,blue,green,,,,,-1,-1,poldrack-single-stim,44,156884,0.0-43.0,5c24bc56-6a07-4103-a81b-d170bfbde171,,500,500,fixation,,<div class = centerbox><div class = fixation>+</div></div>,none,500,practice,,,,,,,,,,,656,82,poldrack-categorize,45,159397,0.0-44.0,5c24bc56-6a07-4103-a81b-d170bfbde171,,1500,250,stim,,"<div class = centerbox><div class = stroop-stim style = ""color:red"">GREEN</div></div>","66,71,82",1500,practice,TRUE,82,500,incongruent,red,green,,,,,-1,-1,poldrack-single-stim,46,160151,0.0-45.0,5c24bc56-6a07-4103-a81b-d170bfbde171,,500,500,fixation,,<div class = centerbox><div class = fixation>+</div></div>,none,500,practice,,,,,,,,,,,996,82,poldrack-categorize,47,162665,0.0-46.0,5c24bc56-6a07-4103-a81b-d170bfbde171,,1500,250,stim,,"<div class = centerbox><div class = stroop-stim style = ""color:red"">BLUE</div></div>","66,71,82",1500,practice,TRUE,82,500,incongruent,red,blue,,,,,-1,-1,poldrack-single-stim,48,163425,0.0-47.0,5c24bc56-6a07-4103-a81b-d170bfbde171,,500,500,fixation,,<div class = centerbox><div class = fixation>+</div></div>,none,500,practice,,,,,,,,,,,721,71,poldrack-categorize,49,165939,0.0-48.0,5c24bc56-6a07-4103-a81b-d170bfbde171,,1500,250,stim,,"<div class = centerbox><div class = stroop-stim style = ""color:green"">BLUE</div></div>","66,71,82",1500,practice,TRUE,71,500,incongruent,green,blue,,,,,-1,-1,poldrack-single-stim,50,166699,0.0-49.0,5c24bc56-6a07-4103-a81b-d170bfbde171,,500,500,fixation,,<div class = centerbox><div class = fixation>+</div></div>,none,500,practice,,,,,,,,,,,504,66,poldrack-categorize,51,169213,0.0-50.0,5c24bc56-6a07-4103-a81b-d170bfbde171,,1500,250,stim,,"<div class = centerbox><div class = stroop-stim style = ""color:blue"">BLUE</div></div>","66,71,82",1500,practice,TRUE,66,500,congruent,blue,blue,,,,,2480,13,poldrack-text,52,171948,0.0-52.0,5c24bc56-6a07-4103-a81b-d170bfbde171,<div class = centerbox><p class = center-block-text>We will now start the test. Respond exactly like you did during practice.</p><p class = center-block-text>Press <strong>enter</strong> to begin the test.</p></div>,2480,1000,test_intro,,,,,,,,,,,,,,,,-1,-1,poldrack-single-stim,53,173455,0.0-53.0,5c24bc56-6a07-4103-a81b-d170bfbde171,,500,500,fixation,,<div class = centerbox><div class = fixation>+</div></div>,none,500,test,,,,,,,,,,,800,71,poldrack-categorize,54,175964,0.0-54.0,5c24bc56-6a07-4103-a81b-d170bfbde171,,1500,250,stim,,"<div class = centerbox><div class = stroop-stim style = ""color:green"">BLUE</div></div>","66,71,82",1500,test,TRUE,71,500,incongruent,green,blue,,,,,-1,-1,poldrack-single-stim,55,176724,0.0-55.0,5c24bc56-6a07-4103-a81b-d170bfbde171,,500,500,fixation,,<div class = centerbox><div class = fixation>+</div></div>,none,500,test,,,,,,,,,,,681,66,poldrack-categorize,56,179234,0.0-56.0,5c24bc56-6a07-4103-a81b-d170bfbde171,,1500,250,stim,,"<div class = centerbox><div class = stroop-stim style = ""color:blue"">BLUE</div></div>","66,71,82",1500,test,TRUE,66,500,congruent,blue,blue,,,,,-1,-1,poldrack-single-stim,57,179990,0.0-57.0,5c24bc56-6a07-4103-a81b-d170bfbde171,,500,500,fixation,,<div class = centerbox><div class = fixation>+</div></div>,none,500,test,,,,,,,,,,,621,71,poldrack-categorize,58,182500,0.0-58.0,5c24bc56-6a07-4103-a81b-d170bfbde171,,1500,250,stim,,"<div class = centerbox><div class = stroop-stim style = ""color:green"">GREEN</div></div>","66,71,82",1500,test,TRUE,71,500,congruent,green,green,,,,,-1,-1,poldrack-single-stim,59,183261,0.0-59.0,5c24bc56-6a07-4103-a81b-d170bfbde171,,500,500,fixation,,<div class = centerbox><div class = fixation>+</div></div>,none,500,test,,,,,,,,,,,1030,71,poldrack-categorize,60,185774,0.0-60.0,5c24bc56-6a07-4103-a81b-d170bfbde171,,1500,250,stim,,"<div class = centerbox><div class = stroop-stim style = ""color:green"">RED</div></div>","66,71,82",1500,test,TRUE,71,500,incongruent,green,red,,,,,-1,-1,poldrack-single-stim,61,186531,0.0-61.0,5c24bc56-6a07-4103-a81b-d170bfbde171,,500,500,fixation,,<div class = centerbox><div class = fixation>+</div></div>,none,500,test,,,,,,,,,,,958,82,poldrack-categorize,62,189042,0.0-62.0,5c24bc56-6a07-4103-a81b-d170bfbde171,,1500,250,stim,,"<div class = centerbox><div class = stroop-stim style = ""color:red"">BLUE</div></div>","66,71,82",1500,test,TRUE,82,500,incongruent,red,blue,,,,,-1,-1,poldrack-single-stim,63,189803,0.0-63.0,5c24bc56-6a07-4103-a81b-d170bfbde171,,500,500,fixation,,<div class = centerbox><div class = fixation>+</div></div>,none,500,test,,,,,,,,,,,578,66,poldrack-categorize,64,192311,0.0-64.0,5c24bc56-6a07-4103-a81b-d170bfbde171,,1500,250,stim,,"<div class = centerbox><div class = stroop-stim style = ""color:blue"">BLUE</div></div>","66,71,82",1500,test,TRUE,66,500,congruent,blue,blue,,,,,-1,-1,poldrack-single-stim,65,193071,0.0-65.0,5c24bc56-6a07-4103-a81b-d170bfbde171,,500,500,fixation,,<div class = centerbox><div class = fixation>+</div></div>,none,500,test,,,,,,,,,,,499,82,poldrack-categorize,66,195585,0.0-66.0,5c24bc56-6a07-4103-a81b-d170bfbde171,,1500,250,stim,,"<div class = centerbox><div class = stroop-stim style = ""color:red"">RED</div></div>","66,71,82",1500,test,TRUE,82,500,congruent,red,red,,,,,-1,-1,poldrack-single-stim,67,196345,0.0-67.0,5c24bc56-6a07-4103-a81b-d170bfbde171,,500,500,fixation,,<div class = centerbox><div class = fixation>+</div></div>,none,500,test,,,,,,,,,,,354,71,poldrack-categorize,68,198859,0.0-68.0,5c24bc56-6a07-4103-a81b-d170bfbde171,,1500,250,stim,,"<div class = centerbox><div class = stroop-stim style = ""color:green"">GREEN</div></div>","66,71,82",1500,test,TRUE,71,500,congruent,green,green,,,,,-1,-1,poldrack-single-stim,69,199619,0.0-69.0,5c24bc56-6a07-4103-a81b-d170bfbde171,,500,500,fixation,,<div class = centerbox><div class = fixation>+</div></div>,none,500,test,,,,,,,,,,,760,66,poldrack-categorize,70,202132,0.0-70.0,5c24bc56-6a07-4103-a81b-d170bfbde171,,1500,250,stim,,"<div class = centerbox><div class = stroop-stim style = ""color:green"">BLUE</div></div>","66,71,82",1500,test,FALSE,71,500,incongruent,green,blue,,,,,-1,-1,poldrack-single-stim,71,202893,0.0-71.0,5c24bc56-6a07-4103-a81b-d170bfbde171,,500,500,fixation,,<div class = centerbox><div class = fixation>+</div></div>,none,500,test,,,,,,,,,,,894,82,poldrack-categorize,72,205407,0.0-72.0,5c24bc56-6a07-4103-a81b-d170bfbde171,,1500,250,stim,,"<div class = centerbox><div class = stroop-stim style = ""color:red"">RED</div></div>","66,71,82",1500,test,TRUE,82,500,congruent,red,red,,,,,-1,-1,poldrack-single-stim,73,206167,0.0-73.0,5c24bc56-6a07-4103-a81b-d170bfbde171,,500,500,fixation,,<div class = centerbox><div class = fixation>+</div></div>,none,500,test,,,,,,,,,,,565,82,poldrack-categorize,74,208680,0.0-74.0,5c24bc56-6a07-4103-a81b-d170bfbde171,,1500,250,stim,,"<div class = centerbox><div class = stroop-stim style = ""color:red"">RED</div></div>","66,71,82",1500,test,TRUE,82,500,congruent,red,red,,,,,-1,-1,poldrack-single-stim,75,209441,0.0-75.0,5c24bc56-6a07-4103-a81b-d170bfbde171,,500,500,fixation,,<div class = centerbox><div class = fixation>+</div></div>,none,500,test,,,,,,,,,,,929,82,poldrack-categorize,76,211954,0.0-76.0,5c24bc56-6a07-4103-a81b-d170bfbde171,,1500,250,stim,,"<div class = centerbox><div class = stroop-stim style = ""color:red"">BLUE</div></div>","66,71,82",1500,test,TRUE,82,500,incongruent,red,blue,,,,,-1,-1,poldrack-single-stim,77,212715,0.0-77.0,5c24bc56-6a07-4103-a81b-d170bfbde171,,500,500,fixation,,<div class = centerbox><div class = fixation>+</div></div>,none,500,test,,,,,,,,,,,840,66,poldrack-categorize,78,215229,0.0-78.0,5c24bc56-6a07-4103-a81b-d170bfbde171,,1500,250,stim,,"<div class = centerbox><div class = stroop-stim style = ""color:blue"">RED</div></div>","66,71,82",1500,test,TRUE,66,500,incongruent,blue,red,,,,,-1,-1,poldrack-single-stim,79,215989,0.0-79.0,5c24bc56-6a07-4103-a81b-d170bfbde171,,500,500,fixation,,<div class = centerbox><div class = fixation>+</div></div>,none,500,test,,,,,,,,,,,870,71,poldrack-categorize,80,218502,0.0-80.0,5c24bc56-6a07-4103-a81b-d170bfbde171,,1500,250,stim,,"<div class = centerbox><div class = stroop-stim style = ""color:green"">BLUE</div></div>","66,71,82",1500,test,TRUE,71,500,incongruent,green,blue,,,,,-1,-1,poldrack-single-stim,81,219263,0.0-81.0,5c24bc56-6a07-4103-a81b-d170bfbde171,,500,500,fixation,,<div class = centerbox><div class = fixation>+</div></div>,none,500,test,,,,,,,,,,,643,66,poldrack-categorize,82,221776,0.0-82.0,5c24bc56-6a07-4103-a81b-d170bfbde171,,1500,250,stim,,"<div class = centerbox><div class = stroop-stim style = ""color:blue"">GREEN</div></div>","66,71,82",1500,test,TRUE,66,500,incongruent,blue,green,,,,,-1,-1,poldrack-single-stim,83,222537,0.0-83.0,5c24bc56-6a07-4103-a81b-d170bfbde171,,500,500,fixation,,<div class = centerbox><div class = fixation>+</div></div>,none,500,test,,,,,,,,,,,946,66,poldrack-categorize,84,225050,0.0-84.0,5c24bc56-6a07-4103-a81b-d170bfbde171,,1500,250,stim,,"<div class = centerbox><div class = stroop-stim style = ""color:blue"">BLUE</div></div>","66,71,82",1500,test,TRUE,66,500,congruent,blue,blue,,,,,-1,-1,poldrack-single-stim,85,225811,0.0-85.0,5c24bc56-6a07-4103-a81b-d170bfbde171,,500,500,fixation,,<div class = centerbox><div class = fixation>+</div></div>,none,500,test,,,,,,,,,,,728,66,poldrack-categorize,86,228324,0.0-86.0,5c24bc56-6a07-4103-a81b-d170bfbde171,,1500,250,stim,,"<div class = centerbox><div class = stroop-stim style = ""color:blue"">BLUE</div></div>","66,71,82",1500,test,TRUE,66,500,congruent,blue,blue,,,,,-1,-1,poldrack-single-stim,87,229085,0.0-87.0,5c24bc56-6a07-4103-a81b-d170bfbde171,,500,500,fixation,,<div class = centerbox><div class = fixation>+</div></div>,none,500,test,,,,,,,,,,,1023,66,poldrack-categorize,88,231598,0.0-88.0,5c24bc56-6a07-4103-a81b-d170bfbde171,,1500,250,stim,,"<div class = centerbox><div class = stroop-stim style = ""color:blue"">GREEN</div></div>","66,71,82",1500,test,TRUE,66,500,incongruent,blue,green,,,,,-1,-1,poldrack-single-stim,89,232359,0.0-89.0,5c24bc56-6a07-4103-a81b-d170bfbde171,,500,500,fixation,,<div class = centerbox><div class = fixation>+</div></div>,none,500,test,,,,,,,,,,,1421,71,poldrack-categorize,90,234866,0.0-90.0,5c24bc56-6a07-4103-a81b-d170bfbde171,,1500,250,stim,,"<div class = centerbox><div class = stroop-stim style = ""color:green"">GREEN</div></div>","66,71,82",1500,test,TRUE,71,500,congruent,green,green,,,,,-1,-1,poldrack-single-stim,91,235627,0.0-91.0,5c24bc56-6a07-4103-a81b-d170bfbde171,,500,500,fixation,,<div class = centerbox><div class = fixation>+</div></div>,none,500,test,,,,,,,,,,,902,71,poldrack-categorize,92,238140,0.0-92.0,5c24bc56-6a07-4103-a81b-d170bfbde171,,1500,250,stim,,"<div class = centerbox><div class = stroop-stim style = ""color:green"">BLUE</div></div>","66,71,82",1500,test,TRUE,71,500,incongruent,green,blue,,,,,-1,-1,poldrack-single-stim,93,238899,0.0-93.0,5c24bc56-6a07-4103-a81b-d170bfbde171,,500,500,fixation,,<div class = centerbox><div class = fixation>+</div></div>,none,500,test,,,,,,,,,,,627,66,poldrack-categorize,94,241408,0.0-94.0,5c24bc56-6a07-4103-a81b-d170bfbde171,,1500,250,stim,,"<div class = centerbox><div class = stroop-stim style = ""color:blue"">BLUE</div></div>","66,71,82",1500,test,TRUE,66,500,congruent,blue,blue,,,,,-1,-1,poldrack-single-stim,95,242169,0.0-95.0,5c24bc56-6a07-4103-a81b-d170bfbde171,,500,500,fixation,,<div class = centerbox><div class = fixation>+</div></div>,none,500,test,,,,,,,,,,,537,82,poldrack-categorize,96,244682,0.0-96.0,5c24bc56-6a07-4103-a81b-d170bfbde171,,1500,250,stim,,"<div class = centerbox><div class = stroop-stim style = ""color:red"">RED</div></div>","66,71,82",1500,test,TRUE,82,500,congruent,red,red,,,,,-1,-1,poldrack-single-stim,97,245443,0.0-97.0,5c24bc56-6a07-4103-a81b-d170bfbde171,,500,500,fixation,,<div class = centerbox><div class = fixation>+</div></div>,none,500,test,,,,,,,,,,,752,82,poldrack-categorize,98,247953,0.0-98.0,5c24bc56-6a07-4103-a81b-d170bfbde171,,1500,250,stim,,"<div class = centerbox><div class = stroop-stim style = ""color:red"">GREEN</div></div>","66,71,82",1500,test,TRUE,82,500,incongruent,red,green,,,,,-1,-1,poldrack-single-stim,99,248711,0.0-99.0,5c24bc56-6a07-4103-a81b-d170bfbde171,,500,500,fixation,,<div class = centerbox><div class = fixation>+</div></div>,none,500,test,,,,,,,,,,,1179,66,poldrack-categorize,100,251225,0.0-100.0,5c24bc56-6a07-4103-a81b-d170bfbde171,,1500,250,stim,,"<div class = centerbox><div class = stroop-stim style = ""color:blue"">RED</div></div>","66,71,82",1500,test,TRUE,66,500,incongruent,blue,red,,,,,-1,-1,poldrack-single-stim,101,251985,0.0-101.0,5c24bc56-6a07-4103-a81b-d170bfbde171,,500,500,fixation,,<div class = centerbox><div class = fixation>+</div></div>,none,500,test,,,,,,,,,,,1112,82,poldrack-categorize,102,254499,0.0-102.0,5c24bc56-6a07-4103-a81b-d170bfbde171,,1500,250,stim,,"<div class = centerbox><div class = stroop-stim style = ""color:red"">BLUE</div></div>","66,71,82",1500,test,TRUE,82,500,incongruent,red,blue,,,,,-1,-1,poldrack-single-stim,103,255259,0.0-103.0,5c24bc56-6a07-4103-a81b-d170bfbde171,,500,500,fixation,,<div class = centerbox><div class = fixation>+</div></div>,none,500,test,,,,,,,,,,,792,71,poldrack-categorize,104,257772,0.0-104.0,5c24bc56-6a07-4103-a81b-d170bfbde171,,1500,250,stim,,"<div class = centerbox><div class = stroop-stim style = ""color:green"">RED</div></div>","66,71,82",1500,test,TRUE,71,500,incongruent,green,red,,,,,-1,-1,poldrack-single-stim,105,258533,0.0-105.0,5c24bc56-6a07-4103-a81b-d170bfbde171,,500,500,fixation,,<div class = centerbox><div class = fixation>+</div></div>,none,500,test,,,,,,,,,,,469,66,poldrack-categorize,106,261047,0.0-106.0,5c24bc56-6a07-4103-a81b-d170bfbde171,,1500,250,stim,,"<div class = centerbox><div class = stroop-stim style = ""color:blue"">GREEN</div></div>","66,71,82",1500,test,TRUE,66,500,incongruent,blue,green,,,,,-1,-1,poldrack-single-stim,107,261801,0.0-107.0,5c24bc56-6a07-4103-a81b-d170bfbde171,,500,500,fixation,,<div class = centerbox><div class = fixation>+</div></div>,none,500,test,,,,,,,,,,,441,82,poldrack-categorize,108,264315,0.0-108.0,5c24bc56-6a07-4103-a81b-d170bfbde171,,1500,250,stim,,"<div class = centerbox><div class = stroop-stim style = ""color:red"">GREEN</div></div>","66,71,82",1500,test,TRUE,82,500,incongruent,red,green,,,,,-1,-1,poldrack-single-stim,109,265075,0.0-109.0,5c24bc56-6a07-4103-a81b-d170bfbde171,,500,500,fixation,,<div class = centerbox><div class = fixation>+</div></div>,none,500,test,,,,,,,,,,,846,66,poldrack-categorize,110,267589,0.0-110.0,5c24bc56-6a07-4103-a81b-d170bfbde171,,1500,250,stim,,"<div class = centerbox><div class = stroop-stim style = ""color:blue"">GREEN</div></div>","66,71,82",1500,test,TRUE,66,500,incongruent,blue,green,,,,,-1,-1,poldrack-single-stim,111,268349,0.0-111.0,5c24bc56-6a07-4103-a81b-d170bfbde171,,500,500,fixation,,<div class = centerbox><div class = fixation>+</div></div>,none,500,test,,,,,,,,,,,678,66,poldrack-categorize,112,270863,0.0-112.0,5c24bc56-6a07-4103-a81b-d170bfbde171,,1500,250,stim,,"<div class = centerbox><div class = stroop-stim style = ""color:blue"">RED</div></div>","66,71,82",1500,test,TRUE,66,500,incongruent,blue,red,,,,,-1,-1,poldrack-single-stim,113,271623,0.0-113.0,5c24bc56-6a07-4103-a81b-d170bfbde171,,500,500,fixation,,<div class = centerbox><div class = fixation>+</div></div>,none,500,test,,,,,,,,,,,770,71,poldrack-categorize,114,274137,0.0-114.0,5c24bc56-6a07-4103-a81b-d170bfbde171,,1500,250,stim,,"<div class = centerbox><div class = stroop-stim style = ""color:green"">GREEN</div></div>","66,71,82",1500,test,TRUE,71,500,congruent,green,green,,,,,-1,-1,poldrack-single-stim,115,274897,0.0-115.0,5c24bc56-6a07-4103-a81b-d170bfbde171,,500,500,fixation,,<div class = centerbox><div class = fixation>+</div></div>,none,500,test,,,,,,,,,,,576,66,poldrack-categorize,116,277407,0.0-116.0,5c24bc56-6a07-4103-a81b-d170bfbde171,,1500,250,stim,,"<div class = centerbox><div class = stroop-stim style = ""color:blue"">BLUE</div></div>","66,71,82",1500,test,TRUE,66,500,congruent,blue,blue,,,,,-1,-1,poldrack-single-stim,117,278161,0.0-117.0,5c24bc56-6a07-4103-a81b-d170bfbde171,,500,500,fixation,,<div class = centerbox><div class = fixation>+</div></div>,none,500,test,,,,,,,,,,,584,71,poldrack-categorize,118,280673,0.0-118.0,5c24bc56-6a07-4103-a81b-d170bfbde171,,1500,250,stim,,"<div class = centerbox><div class = stroop-stim style = ""color:green"">GREEN</div></div>","66,71,82",1500,test,TRUE,71,500,congruent,green,green,,,,,-1,-1,poldrack-single-stim,119,281428,0.0-119.0,5c24bc56-6a07-4103-a81b-d170bfbde171,,500,500,fixation,,<div class = centerbox><div class = fixation>+</div></div>,none,500,test,,,,,,,,,,,406,66,poldrack-categorize,120,283941,0.0-120.0,5c24bc56-6a07-4103-a81b-d170bfbde171,,1500,250,stim,,"<div class = centerbox><div class = stroop-stim style = ""color:blue"">BLUE</div></div>","66,71,82",1500,test,TRUE,66,500,congruent,blue,blue,,,,,-1,-1,poldrack-single-stim,121,284702,0.0-121.0,5c24bc56-6a07-4103-a81b-d170bfbde171,,500,500,fixation,,<div class = centerbox><div class = fixation>+</div></div>,none,500,test,,,,,,,,,,,477,82,poldrack-categorize,122,287215,0.0-122.0,5c24bc56-6a07-4103-a81b-d170bfbde171,,1500,250,stim,,"<div class = centerbox><div class = stroop-stim style = ""color:red"">RED</div></div>","66,71,82",1500,test,TRUE,82,500,congruent,red,red,,,,,-1,-1,poldrack-single-stim,123,287976,0.0-123.0,5c24bc56-6a07-4103-a81b-d170bfbde171,,500,500,fixation,,<div class = centerbox><div class = fixation>+</div></div>,none,500,test,,,,,,,,,,,634,71,poldrack-categorize,124,290489,0.0-124.0,5c24bc56-6a07-4103-a81b-d170bfbde171,,1500,250,stim,,"<div class = centerbox><div class = stroop-stim style = ""color:green"">GREEN</div></div>","66,71,82",1500,test,TRUE,71,500,congruent,green,green,,,,,-1,-1,poldrack-single-stim,125,291250,0.0-125.0,5c24bc56-6a07-4103-a81b-d170bfbde171,,500,500,fixation,,<div class = centerbox><div class = fixation>+</div></div>,none,500,test,,,,,,,,,,,568,66,poldrack-categorize,126,293763,0.0-126.0,5c24bc56-6a07-4103-a81b-d170bfbde171,,1500,250,stim,,"<div class = centerbox><div class = stroop-stim style = ""color:blue"">BLUE</div></div>","66,71,82",1500,test,TRUE,66,500,congruent,blue,blue,,,,,-1,-1,poldrack-single-stim,127,294522,0.0-127.0,5c24bc56-6a07-4103-a81b-d170bfbde171,,500,500,fixation,,<div class = centerbox><div class = fixation>+</div></div>,none,500,test,,,,,,,,,,,643,71,poldrack-categorize,128,297031,0.0-128.0,5c24bc56-6a07-4103-a81b-d170bfbde171,,1500,250,stim,,"<div class = centerbox><div class = stroop-stim style = ""color:green"">GREEN</div></div>","66,71,82",1500,test,TRUE,71,500,congruent,green,green,,,,,-1,-1,poldrack-single-stim,129,297792,0.0-129.0,5c24bc56-6a07-4103-a81b-d170bfbde171,,500,500,fixation,,<div class = centerbox><div class = fixation>+</div></div>,none,500,test,,,,,,,,,,,498,71,poldrack-categorize,130,300300,0.0-130.0,5c24bc56-6a07-4103-a81b-d170bfbde171,,1500,250,stim,,"<div class = centerbox><div class = stroop-stim style = ""color:green"">GREEN</div></div>","66,71,82",1500,test,TRUE,71,500,congruent,green,green,,,,,-1,-1,poldrack-single-stim,131,301060,0.0-131.0,5c24bc56-6a07-4103-a81b-d170bfbde171,,500,500,fixation,,<div class = centerbox><div class = fixation>+</div></div>,none,500,test,,,,,,,,,,,589,66,poldrack-categorize,132,303573,0.0-132.0,5c24bc56-6a07-4103-a81b-d170bfbde171,,1500,250,stim,,"<div class = centerbox><div class = stroop-stim style = ""color:blue"">BLUE</div></div>","66,71,82",1500,test,TRUE,66,500,congruent,blue,blue,,,,,-1,-1,poldrack-single-stim,133,304334,0.0-133.0,5c24bc56-6a07-4103-a81b-d170bfbde171,,500,500,fixation,,<div class = centerbox><div class = fixation>+</div></div>,none,500,test,,,,,,,,,,,428,82,poldrack-categorize,134,306847,0.0-134.0,5c24bc56-6a07-4103-a81b-d170bfbde171,,1500,250,stim,,"<div class = centerbox><div class = stroop-stim style = ""color:red"">GREEN</div></div>","66,71,82",1500,test,TRUE,82,500,incongruent,red,green,,,,,-1,-1,poldrack-single-stim,135,307608,0.0-135.0,5c24bc56-6a07-4103-a81b-d170bfbde171,,500,500,fixation,,<div class = centerbox><div class = fixation>+</div></div>,none,500,test,,,,,,,,,,,634,71,poldrack-categorize,136,310121,0.0-136.0,5c24bc56-6a07-4103-a81b-d170bfbde171,,1500,250,stim,,"<div class = centerbox><div class = stroop-stim style = ""color:green"">RED</div></div>","66,71,82",1500,test,TRUE,71,500,incongruent,green,red,,,,,-1,-1,poldrack-single-stim,137,310882,0.0-137.0,5c24bc56-6a07-4103-a81b-d170bfbde171,,500,500,fixation,,<div class = centerbox><div class = fixation>+</div></div>,none,500,test,,,,,,,,,,,592,71,poldrack-categorize,138,313395,0.0-138.0,5c24bc56-6a07-4103-a81b-d170bfbde171,,1500,250,stim,,"<div class = centerbox><div class = stroop-stim style = ""color:red"">RED</div></div>","66,71,82",1500,test,FALSE,82,500,congruent,red,red,,,,,-1,-1,poldrack-single-stim,139,314156,0.0-139.0,5c24bc56-6a07-4103-a81b-d170bfbde171,,500,500,fixation,,<div class = centerbox><div class = fixation>+</div></div>,none,500,test,,,,,,,,,,,797,66,poldrack-categorize,140,316669,0.0-140.0,5c24bc56-6a07-4103-a81b-d170bfbde171,,1500,250,stim,,"<div class = centerbox><div class = stroop-stim style = ""color:blue"">RED</div></div>","66,71,82",1500,test,TRUE,66,500,incongruent,blue,red,,,,,-1,-1,poldrack-single-stim,141,317430,0.0-141.0,5c24bc56-6a07-4103-a81b-d170bfbde171,,500,500,fixation,,<div class = centerbox><div class = fixation>+</div></div>,none,500,test,,,,,,,,,,,715,66,poldrack-categorize,142,319943,0.0-142.0,5c24bc56-6a07-4103-a81b-d170bfbde171,,1500,250,stim,,"<div class = centerbox><div class = stroop-stim style = ""color:blue"">BLUE</div></div>","66,71,82",1500,test,TRUE,66,500,congruent,blue,blue,,,,,-1,-1,poldrack-single-stim,143,320704,0.0-143.0,5c24bc56-6a07-4103-a81b-d170bfbde171,,500,500,fixation,,<div class = centerbox><div class = fixation>+</div></div>,none,500,test,,,,,,,,,,,442,82,poldrack-categorize,144,323217,0.0-144.0,5c24bc56-6a07-4103-a81b-d170bfbde171,,1500,250,stim,,"<div class = centerbox><div class = stroop-stim style = ""color:red"">GREEN</div></div>","66,71,82",1500,test,TRUE,82,500,incongruent,red,green,,,,,-1,-1,poldrack-single-stim,145,323978,0.0-145.0,5c24bc56-6a07-4103-a81b-d170bfbde171,,500,500,fixation,,<div class = centerbox><div class = fixation>+</div></div>,none,500,test,,,,,,,,,,,760,71,poldrack-categorize,146,326491,0.0-146.0,5c24bc56-6a07-4103-a81b-d170bfbde171,,1500,250,stim,,"<div class = centerbox><div class = stroop-stim style = ""color:green"">GREEN</div></div>","66,71,82",1500,test,TRUE,71,500,congruent,green,green,,,,,-1,-1,poldrack-single-stim,147,327252,0.0-147.0,5c24bc56-6a07-4103-a81b-d170bfbde171,,500,500,fixation,,<div class = centerbox><div class = fixation>+</div></div>,none,500,test,,,,,,,,,,,437,66,poldrack-categorize,148,329765,0.0-148.0,5c24bc56-6a07-4103-a81b-d170bfbde171,,1500,250,stim,,"<div class = centerbox><div class = stroop-stim style = ""color:blue"">BLUE</div></div>","66,71,82",1500,test,TRUE,66,500,congruent,blue,blue,,,,,-1,-1,poldrack-single-stim,149,330526,0.0-149.0,5c24bc56-6a07-4103-a81b-d170bfbde171,,500,500,fixation,,<div class = centerbox><div class = fixation>+</div></div>,none,500,test,,,,,,,,,,,546,71,poldrack-categorize,150,333036,0.0-150.0,5c24bc56-6a07-4103-a81b-d170bfbde171,,1500,250,stim,,"<div class = centerbox><div class = stroop-stim style = ""color:green"">GREEN</div></div>","66,71,82",1500,test,TRUE,71,500,congruent,green,green,,,,,-1,-1,poldrack-single-stim,151,333794,0.0-151.0,5c24bc56-6a07-4103-a81b-d170bfbde171,,500,500,fixation,,<div class = centerbox><div class = fixation>+</div></div>,none,500,test,,,,,,,,,,,911,82,poldrack-categorize,152,336307,0.0-152.0,5c24bc56-6a07-4103-a81b-d170bfbde171,,1500,250,stim,,"<div class = centerbox><div class = stroop-stim style = ""color:red"">RED</div></div>","66,71,82",1500,test,TRUE,82,500,congruent,red,red,,,,,-1,-1,poldrack-single-stim,153,337068,0.0-153.0,5c24bc56-6a07-4103-a81b-d170bfbde171,,500,500,fixation,,<div class = centerbox><div class = fixation>+</div></div>,none,500,test,,,,,,,,,,,846,82,poldrack-categorize,154,339581,0.0-154.0,5c24bc56-6a07-4103-a81b-d170bfbde171,,1500,250,stim,,"<div class = centerbox><div class = stroop-stim style = ""color:green"">RED</div></div>","66,71,82",1500,test,FALSE,71,500,incongruent,green,red,,,,,-1,-1,poldrack-single-stim,155,340342,0.0-155.0,5c24bc56-6a07-4103-a81b-d170bfbde171,,500,500,fixation,,<div class = centerbox><div class = fixation>+</div></div>,none,500,test,,,,,,,,,,,971,82,poldrack-categorize,156,342856,0.0-156.0,5c24bc56-6a07-4103-a81b-d170bfbde171,,1500,250,stim,,"<div class = centerbox><div class = stroop-stim style = ""color:red"">BLUE</div></div>","66,71,82",1500,test,TRUE,82,500,incongruent,red,blue,,,,,-1,-1,poldrack-single-stim,157,343616,0.0-157.0,5c24bc56-6a07-4103-a81b-d170bfbde171,,500,500,fixation,,<div class = centerbox><div class = fixation>+</div></div>,none,500,test,,,,,,,,,,,984,82,poldrack-categorize,158,346129,0.0-158.0,5c24bc56-6a07-4103-a81b-d170bfbde171,,1500,250,stim,,"<div class = centerbox><div class = stroop-stim style = ""color:red"">BLUE</div></div>","66,71,82",1500,test,TRUE,82,500,incongruent,red,blue,,,,,-1,-1,poldrack-single-stim,159,346890,0.0-159.0,5c24bc56-6a07-4103-a81b-d170bfbde171,,500,500,fixation,,<div class = centerbox><div class = fixation>+</div></div>,none,500,test,,,,,,,,,,,760,82,poldrack-categorize,160,349403,0.0-160.0,5c24bc56-6a07-4103-a81b-d170bfbde171,,1500,250,stim,,"<div class = centerbox><div class = stroop-stim style = ""color:red"">BLUE</div></div>","66,71,82",1500,test,TRUE,82,500,incongruent,red,blue,,,,,-1,-1,poldrack-single-stim,161,350162,0.0-161.0,5c24bc56-6a07-4103-a81b-d170bfbde171,,500,500,fixation,,<div class = centerbox><div class = fixation>+</div></div>,none,500,test,,,,,,,,,,,715,82,poldrack-categorize,162,352671,0.0-162.0,5c24bc56-6a07-4103-a81b-d170bfbde171,,1500,250,stim,,"<div class = centerbox><div class = stroop-stim style = ""color:red"">RED</div></div>","66,71,82",1500,test,TRUE,82,500,congruent,red,red,,,,,-1,-1,poldrack-single-stim,163,353432,0.0-163.0,5c24bc56-6a07-4103-a81b-d170bfbde171,,500,500,fixation,,<div class = centerbox><div class = fixation>+</div></div>,none,500,test,,,,,,,,,,,442,66,poldrack-categorize,164,355940,0.0-164.0,5c24bc56-6a07-4103-a81b-d170bfbde171,,1500,250,stim,,"<div class = centerbox><div class = stroop-stim style = ""color:blue"">BLUE</div></div>","66,71,82",1500,test,TRUE,66,500,congruent,blue,blue,,,,,-1,-1,poldrack-single-stim,165,356700,0.0-165.0,5c24bc56-6a07-4103-a81b-d170bfbde171,,500,500,fixation,,<div class = centerbox><div class = fixation>+</div></div>,none,500,test,,,,,,,,,,,660,71,poldrack-categorize,166,359211,0.0-166.0,5c24bc56-6a07-4103-a81b-d170bfbde171,,1500,250,stim,,"<div class = centerbox><div class = stroop-stim style = ""color:green"">GREEN</div></div>","66,71,82",1500,test,TRUE,71,500,congruent,green,green,,,,,-1,-1,poldrack-single-stim,167,359968,0.0-167.0,5c24bc56-6a07-4103-a81b-d170bfbde171,,500,500,fixation,,<div class = centerbox><div class = fixation>+</div></div>,none,500,test,,,,,,,,,,,640,71,poldrack-categorize,168,362482,0.0-168.0,5c24bc56-6a07-4103-a81b-d170bfbde171,,1500,250,stim,,"<div class = centerbox><div class = stroop-stim style = ""color:green"">GREEN</div></div>","66,71,82",1500,test,TRUE,71,500,congruent,green,green,,,,,-1,-1,poldrack-single-stim,169,363242,0.0-169.0,5c24bc56-6a07-4103-a81b-d170bfbde171,,500,500,fixation,,<div class = centerbox><div class = fixation>+</div></div>,none,500,test,,,,,,,,,,,750,71,poldrack-categorize,170,365756,0.0-170.0,5c24bc56-6a07-4103-a81b-d170bfbde171,,1500,250,stim,,"<div class = centerbox><div class = stroop-stim style = ""color:green"">RED</div></div>","66,71,82",1500,test,TRUE,71,500,incongruent,green,red,,,,,-1,-1,poldrack-single-stim,171,366516,0.0-171.0,5c24bc56-6a07-4103-a81b-d170bfbde171,,500,500,fixation,,<div class = centerbox><div class = fixation>+</div></div>,none,500,test,,,,,,,,,,,428,71,poldrack-categorize,172,369029,0.0-172.0,5c24bc56-6a07-4103-a81b-d170bfbde171,,1500,250,stim,,"<div class = centerbox><div class = stroop-stim style = ""color:green"">BLUE</div></div>","66,71,82",1500,test,TRUE,71,500,incongruent,green,blue,,,,,-1,-1,poldrack-single-stim,173,369790,0.0-173.0,5c24bc56-6a07-4103-a81b-d170bfbde171,,500,500,fixation,,<div class = centerbox><div class = fixation>+</div></div>,none,500,test,,,,,,,,,,,867,66,poldrack-categorize,174,372304,0.0-174.0,5c24bc56-6a07-4103-a81b-d170bfbde171,,1500,250,stim,,"<div class = centerbox><div class = stroop-stim style = ""color:blue"">RED</div></div>","66,71,82",1500,test,TRUE,66,500,incongruent,blue,red,,,,,-1,-1,poldrack-single-stim,175,373064,0.0-175.0,5c24bc56-6a07-4103-a81b-d170bfbde171,,500,500,fixation,,<div class = centerbox><div class = fixation>+</div></div>,none,500,test,,,,,,,,,,,376,66,poldrack-categorize,176,375578,0.0-176.0,5c24bc56-6a07-4103-a81b-d170bfbde171,,1500,250,stim,,"<div class = centerbox><div class = stroop-stim style = ""color:blue"">BLUE</div></div>","66,71,82",1500,test,TRUE,66,500,congruent,blue,blue,,,,,-1,-1,poldrack-single-stim,177,376338,0.0-177.0,5c24bc56-6a07-4103-a81b-d170bfbde171,,500,500,fixation,,<div class = centerbox><div class = fixation>+</div></div>,none,500,test,,,,,,,,,,,366,66,poldrack-categorize,178,378852,0.0-178.0,5c24bc56-6a07-4103-a81b-d170bfbde171,,1500,250,stim,,"<div class = centerbox><div class = stroop-stim style = ""color:blue"">GREEN</div></div>","66,71,82",1500,test,TRUE,66,500,incongruent,blue,green,,,,,-1,-1,poldrack-single-stim,179,379612,0.0-179.0,5c24bc56-6a07-4103-a81b-d170bfbde171,,500,500,fixation,,<div class = centerbox><div class = fixation>+</div></div>,none,500,test,,,,,,,,,,,764,82,poldrack-categorize,180,382124,0.0-180.0,5c24bc56-6a07-4103-a81b-d170bfbde171,,1500,250,stim,,"<div class = centerbox><div class = stroop-stim style = ""color:red"">BLUE</div></div>","66,71,82",1500,test,TRUE,82,500,incongruent,red,blue,,,,,-1,-1,poldrack-single-stim,181,382880,0.0-181.0,5c24bc56-6a07-4103-a81b-d170bfbde171,,500,500,fixation,,<div class = centerbox><div class = fixation>+</div></div>,none,500,test,,,,,,,,,,,984,71,poldrack-categorize,182,385394,0.0-182.0,5c24bc56-6a07-4103-a81b-d170bfbde171,,1500,250,stim,,"<div class = centerbox><div class = stroop-stim style = ""color:green"">GREEN</div></div>","66,71,82",1500,test,TRUE,71,500,congruent,green,green,,,,,-1,-1,poldrack-single-stim,183,386154,0.0-183.0,5c24bc56-6a07-4103-a81b-d170bfbde171,,500,500,fixation,,<div class = centerbox><div class = fixation>+</div></div>,none,500,test,,,,,,,,,,,590,82,poldrack-categorize,184,388665,0.0-184.0,5c24bc56-6a07-4103-a81b-d170bfbde171,,1500,250,stim,,"<div class = centerbox><div class = stroop-stim style = ""color:red"">RED</div></div>","66,71,82",1500,test,TRUE,82,500,congruent,red,red,,,,,-1,-1,poldrack-single-stim,185,389422,0.0-185.0,5c24bc56-6a07-4103-a81b-d170bfbde171,,500,500,fixation,,<div class = centerbox><div class = fixation>+</div></div>,none,500,test,,,,,,,,,,,626,82,poldrack-categorize,186,391936,0.0-186.0,5c24bc56-6a07-4103-a81b-d170bfbde171,,1500,250,stim,,"<div class = centerbox><div class = stroop-stim style = ""color:red"">RED</div></div>","66,71,82",1500,test,TRUE,82,500,congruent,red,red,,,,,-1,-1,poldrack-single-stim,187,392691,0.0-187.0,5c24bc56-6a07-4103-a81b-d170bfbde171,,500,500,fixation,,<div class = centerbox><div class = fixation>+</div></div>,none,500,test,,,,,,,,,,,518,82,poldrack-categorize,188,395204,0.0-188.0,5c24bc56-6a07-4103-a81b-d170bfbde171,,1500,250,stim,,"<div class = centerbox><div class = stroop-stim style = ""color:red"">GREEN</div></div>","66,71,82",1500,test,TRUE,82,500,incongruent,red,green,,,,,-1,-1,poldrack-single-stim,189,395965,0.0-189.0,5c24bc56-6a07-4103-a81b-d170bfbde171,,500,500,fixation,,<div class = centerbox><div class = fixation>+</div></div>,none,500,test,,,,,,,,,,,612,82,poldrack-categorize,190,398478,0.0-190.0,5c24bc56-6a07-4103-a81b-d170bfbde171,,1500,250,stim,,"<div class = centerbox><div class = stroop-stim style = ""color:red"">RED</div></div>","66,71,82",1500,test,TRUE,82,500,congruent,red,red,,,,,-1,-1,poldrack-single-stim,191,399239,0.0-191.0,5c24bc56-6a07-4103-a81b-d170bfbde171,,500,500,fixation,,<div class = centerbox><div class = fixation>+</div></div>,none,500,test,,,,,,,,,,,778,66,poldrack-categorize,192,401752,0.0-192.0,5c24bc56-6a07-4103-a81b-d170bfbde171,,1500,250,stim,,"<div class = centerbox><div class = stroop-stim style = ""color:blue"">BLUE</div></div>","66,71,82",1500,test,TRUE,66,500,congruent,blue,blue,,,,,-1,-1,poldrack-single-stim,193,402513,0.0-193.0,5c24bc56-6a07-4103-a81b-d170bfbde171,,500,500,fixation,,<div class = centerbox><div class = fixation>+</div></div>,none,500,test,,,,,,,,,,,791,82,poldrack-categorize,194,405026,0.0-194.0,5c24bc56-6a07-4103-a81b-d170bfbde171,,1500,250,stim,,"<div class = centerbox><div class = stroop-stim style = ""color:red"">RED</div></div>","66,71,82",1500,test,TRUE,82,500,congruent,red,red,,,,,-1,-1,poldrack-single-stim,195,405787,0.0-195.0,5c24bc56-6a07-4103-a81b-d170bfbde171,,500,500,fixation,,<div class = centerbox><div class = fixation>+</div></div>,none,500,test,,,,,,,,,,,670,66,poldrack-categorize,196,408299,0.0-196.0,5c24bc56-6a07-4103-a81b-d170bfbde171,,1500,250,stim,,"<div class = centerbox><div class = stroop-stim style = ""color:blue"">BLUE</div></div>","66,71,82",1500,test,TRUE,66,500,congruent,blue,blue,,,,,-1,-1,poldrack-single-stim,197,409061,0.0-197.0,5c24bc56-6a07-4103-a81b-d170bfbde171,,500,500,fixation,,<div class = centerbox><div class = fixation>+</div></div>,none,500,test,,,,,,,,,,,734,82,poldrack-categorize,198,411568,0.0-198.0,5c24bc56-6a07-4103-a81b-d170bfbde171,,1500,250,stim,,"<div class = centerbox><div class = stroop-stim style = ""color:red"">GREEN</div></div>","66,71,82",1500,test,TRUE,82,500,incongruent,red,green,,,,,-1,-1,poldrack-single-stim,199,412329,0.0-199.0,5c24bc56-6a07-4103-a81b-d170bfbde171,,500,500,fixation,,<div class = centerbox><div class = fixation>+</div></div>,none,500,test,,,,,,,,,,,704,82,poldrack-categorize,200,414842,0.0-200.0,5c24bc56-6a07-4103-a81b-d170bfbde171,,1500,250,stim,,"<div class = centerbox><div class = stroop-stim style = ""color:red"">BLUE</div></div>","66,71,82",1500,test,TRUE,82,500,incongruent,red,blue,,,,,-1,-1,poldrack-single-stim,201,415603,0.0-201.0,5c24bc56-6a07-4103-a81b-d170bfbde171,,500,500,fixation,,<div class = centerbox><div class = fixation>+</div></div>,none,500,test,,,,,,,,,,,495,71,poldrack-categorize,202,418116,0.0-202.0,5c24bc56-6a07-4103-a81b-d170bfbde171,,1500,250,stim,,"<div class = centerbox><div class = stroop-stim style = ""color:green"">BLUE</div></div>","66,71,82",1500,test,TRUE,71,500,incongruent,green,blue,,,,,-1,-1,poldrack-single-stim,203,418877,0.0-203.0,5c24bc56-6a07-4103-a81b-d170bfbde171,,500,500,fixation,,<div class = centerbox><div class = fixation>+</div></div>,none,500,test,,,,,,,,,,,403,66,poldrack-categorize,204,421390,0.0-204.0,5c24bc56-6a07-4103-a81b-d170bfbde171,,1500,250,stim,,"<div class = centerbox><div class = stroop-stim style = ""color:blue"">BLUE</div></div>","66,71,82",1500,test,TRUE,66,500,congruent,blue,blue,,,,,-1,-1,poldrack-single-stim,205,422151,0.0-205.0,5c24bc56-6a07-4103-a81b-d170bfbde171,,500,500,fixation,,<div class = centerbox><div class = fixation>+</div></div>,none,500,test,,,,,,,,,,,442,71,poldrack-categorize,206,424664,0.0-206.0,5c24bc56-6a07-4103-a81b-d170bfbde171,,1500,250,stim,,"<div class = centerbox><div class = stroop-stim style = ""color:green"">GREEN</div></div>","66,71,82",1500,test,TRUE,71,500,congruent,green,green,,,,,-1,-1,poldrack-single-stim,207,425425,0.0-207.0,5c24bc56-6a07-4103-a81b-d170bfbde171,,500,500,fixation,,<div class = centerbox><div class = fixation>+</div></div>,none,500,test,,,,,,,,,,,936,71,poldrack-categorize,208,427938,0.0-208.0,5c24bc56-6a07-4103-a81b-d170bfbde171,,1500,250,stim,,"<div class = centerbox><div class = stroop-stim style = ""color:green"">RED</div></div>","66,71,82",1500,test,TRUE,71,500,incongruent,green,red,,,,,-1,-1,poldrack-single-stim,209,428699,0.0-209.0,5c24bc56-6a07-4103-a81b-d170bfbde171,,500,500,fixation,,<div class = centerbox><div class = fixation>+</div></div>,none,500,test,,,,,,,,,,,597,66,poldrack-categorize,210,431212,0.0-210.0,5c24bc56-6a07-4103-a81b-d170bfbde171,,1500,250,stim,,"<div class = centerbox><div class = stroop-stim style = ""color:blue"">RED</div></div>","66,71,82",1500,test,TRUE,66,500,incongruent,blue,red,,,,,-1,-1,poldrack-single-stim,211,431973,0.0-211.0,5c24bc56-6a07-4103-a81b-d170bfbde171,,500,500,fixation,,<div class = centerbox><div class = fixation>+</div></div>,none,500,test,,,,,,,,,,,643,71,poldrack-categorize,212,434486,0.0-212.0,5c24bc56-6a07-4103-a81b-d170bfbde171,,1500,250,stim,,"<div class = centerbox><div class = stroop-stim style = ""color:green"">GREEN</div></div>","66,71,82",1500,test,TRUE,71,500,congruent,green,green,,,,,-1,-1,poldrack-single-stim,213,435247,0.0-213.0,5c24bc56-6a07-4103-a81b-d170bfbde171,,500,500,fixation,,<div class = centerbox><div class = fixation>+</div></div>,none,500,test,,,,,,,,,,,593,66,poldrack-categorize,214,437760,0.0-214.0,5c24bc56-6a07-4103-a81b-d170bfbde171,,1500,250,stim,,"<div class = centerbox><div class = stroop-stim style = ""color:blue"">GREEN</div></div>","66,71,82",1500,test,TRUE,66,500,incongruent,blue,green,,,,,-1,-1,poldrack-single-stim,215,438521,0.0-215.0,5c24bc56-6a07-4103-a81b-d170bfbde171,,500,500,fixation,,<div class = centerbox><div class = fixation>+</div></div>,none,500,test,,,,,,,,,,,591,71,poldrack-categorize,216,441034,0.0-216.0,5c24bc56-6a07-4103-a81b-d170bfbde171,,1500,250,stim,,"<div class = centerbox><div class = stroop-stim style = ""color:green"">GREEN</div></div>","66,71,82",1500,test,TRUE,71,500,congruent,green,green,,,,,-1,-1,poldrack-single-stim,217,441795,0.0-217.0,5c24bc56-6a07-4103-a81b-d170bfbde171,,500,500,fixation,,<div class = centerbox><div class = fixation>+</div></div>,none,500,test,,,,,,,,,,,885,71,poldrack-categorize,218,444308,0.0-218.0,5c24bc56-6a07-4103-a81b-d170bfbde171,,1500,250,stim,,"<div class = centerbox><div class = stroop-stim style = ""color:green"">BLUE</div></div>","66,71,82",1500,test,TRUE,71,500,incongruent,green,blue,,,,,-1,-1,poldrack-single-stim,219,445063,0.0-219.0,5c24bc56-6a07-4103-a81b-d170bfbde171,,500,500,fixation,,<div class = centerbox><div class = fixation>+</div></div>,none,500,test,,,,,,,,,,,633,66,poldrack-categorize,220,447576,0.0-220.0,5c24bc56-6a07-4103-a81b-d170bfbde171,,1500,250,stim,,"<div class = centerbox><div class = stroop-stim style = ""color:blue"">GREEN</div></div>","66,71,82",1500,test,TRUE,66,500,incongruent,blue,green,,,,,-1,-1,poldrack-single-stim,221,448337,0.0-221.0,5c24bc56-6a07-4103-a81b-d170bfbde171,,500,500,fixation,,<div class = centerbox><div class = fixation>+</div></div>,none,500,test,,,,,,,,,,,519,66,poldrack-categorize,222,450850,0.0-222.0,5c24bc56-6a07-4103-a81b-d170bfbde171,,1500,250,stim,,"<div class = centerbox><div class = stroop-stim style = ""color:blue"">RED</div></div>","66,71,82",1500,test,TRUE,66,500,incongruent,blue,red,,,,,-1,-1,poldrack-single-stim,223,451611,0.0-223.0,5c24bc56-6a07-4103-a81b-d170bfbde171,,500,500,fixation,,<div class = centerbox><div class = fixation>+</div></div>,none,500,test,,,,,,,,,,,781,82,poldrack-categorize,224,454124,0.0-224.0,5c24bc56-6a07-4103-a81b-d170bfbde171,,1500,250,stim,,"<div class = centerbox><div class = stroop-stim style = ""color:red"">GREEN</div></div>","66,71,82",1500,test,TRUE,82,500,incongruent,red,green,,,,,-1,-1,poldrack-single-stim,225,454879,0.0-225.0,5c24bc56-6a07-4103-a81b-d170bfbde171,,500,500,fixation,,<div class = centerbox><div class = fixation>+</div></div>,none,500,test,,,,,,,,,,,808,66,poldrack-categorize,226,457392,0.0-226.0,5c24bc56-6a07-4103-a81b-d170bfbde171,,1500,250,stim,,"<div class = centerbox><div class = stroop-stim style = ""color:blue"">RED</div></div>","66,71,82",1500,test,TRUE,66,500,incongruent,blue,red,,,,,-1,-1,poldrack-single-stim,227,458153,0.0-227.0,5c24bc56-6a07-4103-a81b-d170bfbde171,,500,500,fixation,,<div class = centerbox><div class = fixation>+</div></div>,none,500,test,,,,,,,,,,,639,82,poldrack-categorize,228,460666,0.0-228.0,5c24bc56-6a07-4103-a81b-d170bfbde171,,1500,250,stim,,"<div class = centerbox><div class = stroop-stim style = ""color:red"">RED</div></div>","66,71,82",1500,test,TRUE,82,500,congruent,red,red,,,,,-1,-1,poldrack-single-stim,229,461427,0.0-229.0,5c24bc56-6a07-4103-a81b-d170bfbde171,,500,500,fixation,,<div class = centerbox><div class = fixation>+</div></div>,none,500,test,,,,,,,,,,,764,71,poldrack-categorize,230,463940,0.0-230.0,5c24bc56-6a07-4103-a81b-d170bfbde171,,1500,250,stim,,"<div class = centerbox><div class = stroop-stim style = ""color:green"">BLUE</div></div>","66,71,82",1500,test,TRUE,71,500,incongruent,green,blue,,,,,-1,-1,poldrack-single-stim,231,464695,0.0-231.0,5c24bc56-6a07-4103-a81b-d170bfbde171,,500,500,fixation,,<div class = centerbox><div class = fixation>+</div></div>,none,500,test,,,,,,,,,,,520,71,poldrack-categorize,232,467207,0.0-232.0,5c24bc56-6a07-4103-a81b-d170bfbde171,,1500,250,stim,,"<div class = centerbox><div class = stroop-stim style = ""color:green"">RED</div></div>","66,71,82",1500,test,TRUE,71,500,incongruent,green,red,,,,,-1,-1,poldrack-single-stim,233,467963,0.0-233.0,5c24bc56-6a07-4103-a81b-d170bfbde171,,500,500,fixation,,<div class = centerbox><div class = fixation>+</div></div>,none,500,test,,,,,,,,,,,652,82,poldrack-categorize,234,470477,0.0-234.0,5c24bc56-6a07-4103-a81b-d170bfbde171,,1500,250,stim,,"<div class = centerbox><div class = stroop-stim style = ""color:red"">RED</div></div>","66,71,82",1500,test,TRUE,82,500,congruent,red,red,,,,,-1,-1,poldrack-single-stim,235,471237,0.0-235.0,5c24bc56-6a07-4103-a81b-d170bfbde171,,500,500,fixation,,<div class = centerbox><div class = fixation>+</div></div>,none,500,test,,,,,,,,,,,482,82,poldrack-categorize,236,473750,0.0-236.0,5c24bc56-6a07-4103-a81b-d170bfbde171,,1500,250,stim,,"<div class = centerbox><div class = stroop-stim style = ""color:red"">RED</div></div>","66,71,82",1500,test,TRUE,82,500,congruent,red,red,,,,,-1,-1,poldrack-single-stim,237,474511,0.0-237.0,5c24bc56-6a07-4103-a81b-d170bfbde171,,500,500,fixation,,<div class = centerbox><div class = fixation>+</div></div>,none,500,test,,,,,,,,,,,1088,71,poldrack-categorize,238,477024,0.0-238.0,5c24bc56-6a07-4103-a81b-d170bfbde171,,1500,250,stim,,"<div class = centerbox><div class = stroop-stim style = ""color:green"">RED</div></div>","66,71,82",1500,test,TRUE,71,500,incongruent,green,red,,,,,-1,-1,poldrack-single-stim,239,477785,0.0-239.0,5c24bc56-6a07-4103-a81b-d170bfbde171,,500,500,fixation,,<div class = centerbox><div class = fixation>+</div></div>,none,500,test,,,,,,,,,,,662,82,poldrack-categorize,240,480298,0.0-240.0,5c24bc56-6a07-4103-a81b-d170bfbde171,,1500,250,stim,,"<div class = centerbox><div class = stroop-stim style = ""color:red"">RED</div></div>","66,71,82",1500,test,TRUE,82,500,congruent,red,red,,,,,-1,-1,poldrack-single-stim,241,481059,0.0-241.0,5c24bc56-6a07-4103-a81b-d170bfbde171,,500,500,fixation,,<div class = centerbox><div class = fixation>+</div></div>,none,500,test,,,,,,,,,,,900,82,poldrack-categorize,242,483573,0.0-242.0,5c24bc56-6a07-4103-a81b-d170bfbde171,,1500,250,stim,,"<div class = centerbox><div class = stroop-stim style = ""color:red"">GREEN</div></div>","66,71,82",1500,test,TRUE,82,500,incongruent,red,green,,,,,-1,-1,poldrack-single-stim,243,484333,0.0-243.0,5c24bc56-6a07-4103-a81b-d170bfbde171,,500,500,fixation,,<div class = centerbox><div class = fixation>+</div></div>,none,500,test,,,,,,,,,,,874,66,poldrack-categorize,244,486846,0.0-244.0,5c24bc56-6a07-4103-a81b-d170bfbde171,,1500,250,stim,,"<div class = centerbox><div class = stroop-stim style = ""color:blue"">GREEN</div></div>","66,71,82",1500,test,TRUE,66,500,incongruent,blue,green,,,,,80922,,survey-text,245,568030,0.0-246.0,5c24bc56-6a07-4103-a81b-d170bfbde171,,,,post task questions,,,,,,,,,,,,"{""Q0"":""\npress the corresponding key ( r, b, or g ) for the correlating ink color for each word that came onto the screen."",""Q1"":""No.""}",,,,2119,13,poldrack-text,246,571152,0.0-247.0,5c24bc56-6a07-4103-a81b-d170bfbde171,<div class = centerbox><p class = center-block-text>Thanks for completing this task!</p><p class = center-block-text>Press <strong>enter</strong> to continue.</p></div>,2119,0,end,,,,,,,,,,,,,stroop,TRUE,,1642,13,poldrack-text,247,572831,0.0-248.0-0.0,5c24bc56-6a07-4103-a81b-d170bfbde171,<div class = centerbox><p class = center-block-text>Done with instructions. Press <strong>enter</strong> to continue.</p></div>,1642,0,instruction,,,,,,,,,,,,,,,,