rt,key_press,trial_type,trial_index,time_elapsed,internal_node_id,subject,text,block_duration,timing_post_trial,trial_id,view_history,stimulus,possible_responses,stim_duration,exp_stage,correct,correct_response,feedback_duration,condition,stim_color,stim_word,responses,exp_id,credit_var,stim_place,stim_id70020,13,text,0,70022,0.0-0.0,d00d4a58-8272-4b02-bfcd-6e8a14727a8a,,,,,,,,,,,,,,,,,,,,3415,13,poldrack-text,1,74444,0.0-1.0-0.0,d00d4a58-8272-4b02-bfcd-6e8a14727a8a,<div class = centerbox><p class = center-block-text>Welcome to the experiment. This experiment will take about 8 minutes. Press <strong>enter</strong> to begin.</p></div>,3415,0,instruction,,,,,,,,,,,,,,,,14184,,poldrack-instructions,2,88630,0.0-1.0-1.0,d00d4a58-8272-4b02-bfcd-6e8a14727a8a,,,,instruction,"[{""page_index"":0,""viewing_time"":14184}]",,,,,,,,,,,,,,,2666,13,poldrack-text,3,92299,0.0-2.0,d00d4a58-8272-4b02-bfcd-6e8a14727a8a,"<div class = centerbox><p class = block-text>We will start with a few practice trials. Remember, press the key corresponding to the <strong>ink</strong> color of the word: ""r"" for words colored red, ""b"" for words colored blue, and ""g"" for words colored green.</p><p class = block-text>Press <strong>enter</strong> to begin practice.</p></div>",2666,1000,practice_intro,,,,,,,,,,,,,,,,-1,-1,poldrack-single-stim,4,93805,0.0-3.0,d00d4a58-8272-4b02-bfcd-6e8a14727a8a,,500,500,fixation,,<div class = centerbox><div class = fixation>+</div></div>,none,500,practice,,,,,,,,,,,604,82,poldrack-categorize,5,96318,0.0-4.0,d00d4a58-8272-4b02-bfcd-6e8a14727a8a,,1500,250,stim,,"<div class = centerbox><div class = stroop-stim style = ""color:red"">RED</div></div>","66,71,82",1500,practice,TRUE,82,500,congruent,red,red,,,,,-1,-1,poldrack-single-stim,6,97079,0.0-5.0,d00d4a58-8272-4b02-bfcd-6e8a14727a8a,,500,500,fixation,,<div class = centerbox><div class = fixation>+</div></div>,none,500,practice,,,,,,,,,,,483,82,poldrack-categorize,7,99592,0.0-6.0,d00d4a58-8272-4b02-bfcd-6e8a14727a8a,,1500,250,stim,,"<div class = centerbox><div class = stroop-stim style = ""color:red"">RED</div></div>","66,71,82",1500,practice,TRUE,82,500,congruent,red,red,,,,,-1,-1,poldrack-single-stim,8,100351,0.0-7.0,d00d4a58-8272-4b02-bfcd-6e8a14727a8a,,500,500,fixation,,<div class = centerbox><div class = fixation>+</div></div>,none,500,practice,,,,,,,,,,,788,82,poldrack-categorize,9,102860,0.0-8.0,d00d4a58-8272-4b02-bfcd-6e8a14727a8a,,1500,250,stim,,"<div class = centerbox><div class = stroop-stim style = ""color:red"">BLUE</div></div>","66,71,82",1500,practice,TRUE,82,500,incongruent,red,blue,,,,,-1,-1,poldrack-single-stim,10,103617,0.0-9.0,d00d4a58-8272-4b02-bfcd-6e8a14727a8a,,500,500,fixation,,<div class = centerbox><div class = fixation>+</div></div>,none,500,practice,,,,,,,,,,,962,82,poldrack-categorize,11,106128,0.0-10.0,d00d4a58-8272-4b02-bfcd-6e8a14727a8a,,1500,250,stim,,"<div class = centerbox><div class = stroop-stim style = ""color:red"">BLUE</div></div>","66,71,82",1500,practice,TRUE,82,500,incongruent,red,blue,,,,,-1,-1,poldrack-single-stim,12,106888,0.0-11.0,d00d4a58-8272-4b02-bfcd-6e8a14727a8a,,500,500,fixation,,<div class = centerbox><div class = fixation>+</div></div>,none,500,practice,,,,,,,,,,,872,66,poldrack-categorize,13,109395,0.0-12.0,d00d4a58-8272-4b02-bfcd-6e8a14727a8a,,1500,250,stim,,"<div class = centerbox><div class = stroop-stim style = ""color:blue"">GREEN</div></div>","66,71,82",1500,practice,TRUE,66,500,incongruent,blue,green,,,,,-1,-1,poldrack-single-stim,14,110157,0.0-13.0,d00d4a58-8272-4b02-bfcd-6e8a14727a8a,,500,500,fixation,,<div class = centerbox><div class = fixation>+</div></div>,none,500,practice,,,,,,,,,,,692,71,poldrack-categorize,15,112670,0.0-14.0,d00d4a58-8272-4b02-bfcd-6e8a14727a8a,,1500,250,stim,,"<div class = centerbox><div class = stroop-stim style = ""color:green"">GREEN</div></div>","66,71,82",1500,practice,TRUE,71,500,congruent,green,green,,,,,-1,-1,poldrack-single-stim,16,113427,0.0-15.0,d00d4a58-8272-4b02-bfcd-6e8a14727a8a,,500,500,fixation,,<div class = centerbox><div class = fixation>+</div></div>,none,500,practice,,,,,,,,,,,504,82,poldrack-categorize,17,115938,0.0-16.0,d00d4a58-8272-4b02-bfcd-6e8a14727a8a,,1500,250,stim,,"<div class = centerbox><div class = stroop-stim style = ""color:red"">RED</div></div>","66,71,82",1500,practice,TRUE,82,500,congruent,red,red,,,,,-1,-1,poldrack-single-stim,18,116698,0.0-17.0,d00d4a58-8272-4b02-bfcd-6e8a14727a8a,,500,500,fixation,,<div class = centerbox><div class = fixation>+</div></div>,none,500,practice,,,,,,,,,,,702,66,poldrack-categorize,19,119212,0.0-18.0,d00d4a58-8272-4b02-bfcd-6e8a14727a8a,,1500,250,stim,,"<div class = centerbox><div class = stroop-stim style = ""color:blue"">BLUE</div></div>","66,71,82",1500,practice,TRUE,66,500,congruent,blue,blue,,,,,-1,-1,poldrack-single-stim,20,119966,0.0-19.0,d00d4a58-8272-4b02-bfcd-6e8a14727a8a,,500,500,fixation,,<div class = centerbox><div class = fixation>+</div></div>,none,500,practice,,,,,,,,,,,873,71,poldrack-categorize,21,122480,0.0-20.0,d00d4a58-8272-4b02-bfcd-6e8a14727a8a,,1500,250,stim,,"<div class = centerbox><div class = stroop-stim style = ""color:green"">RED</div></div>","66,71,82",1500,practice,TRUE,71,500,incongruent,green,red,,,,,-1,-1,poldrack-single-stim,22,123238,0.0-21.0,d00d4a58-8272-4b02-bfcd-6e8a14727a8a,,500,500,fixation,,<div class = centerbox><div class = fixation>+</div></div>,none,500,practice,,,,,,,,,,,-1,-1,poldrack-categorize,23,125744,0.0-22.0,d00d4a58-8272-4b02-bfcd-6e8a14727a8a,,1500,250,stim,,"<div class = centerbox><div class = stroop-stim style = ""color:red"">GREEN</div></div>","66,71,82",1500,practice,FALSE,82,500,incongruent,red,green,,,,,-1,-1,poldrack-single-stim,24,126502,0.0-23.0,d00d4a58-8272-4b02-bfcd-6e8a14727a8a,,500,500,fixation,,<div class = centerbox><div class = fixation>+</div></div>,none,500,practice,,,,,,,,,,,913,71,poldrack-categorize,25,129016,0.0-24.0,d00d4a58-8272-4b02-bfcd-6e8a14727a8a,,1500,250,stim,,"<div class = centerbox><div class = stroop-stim style = ""color:green"">BLUE</div></div>","66,71,82",1500,practice,TRUE,71,500,incongruent,green,blue,,,,,-1,-1,poldrack-single-stim,26,129776,0.0-25.0,d00d4a58-8272-4b02-bfcd-6e8a14727a8a,,500,500,fixation,,<div class = centerbox><div class = fixation>+</div></div>,none,500,practice,,,,,,,,,,,623,71,poldrack-categorize,27,132289,0.0-26.0,d00d4a58-8272-4b02-bfcd-6e8a14727a8a,,1500,250,stim,,"<div class = centerbox><div class = stroop-stim style = ""color:green"">GREEN</div></div>","66,71,82",1500,practice,TRUE,71,500,congruent,green,green,,,,,-1,-1,poldrack-single-stim,28,133050,0.0-27.0,d00d4a58-8272-4b02-bfcd-6e8a14727a8a,,500,500,fixation,,<div class = centerbox><div class = fixation>+</div></div>,none,500,practice,,,,,,,,,,,573,71,poldrack-categorize,29,135563,0.0-28.0,d00d4a58-8272-4b02-bfcd-6e8a14727a8a,,1500,250,stim,,"<div class = centerbox><div class = stroop-stim style = ""color:green"">GREEN</div></div>","66,71,82",1500,practice,TRUE,71,500,congruent,green,green,,,,,-1,-1,poldrack-single-stim,30,136324,0.0-29.0,d00d4a58-8272-4b02-bfcd-6e8a14727a8a,,500,500,fixation,,<div class = centerbox><div class = fixation>+</div></div>,none,500,practice,,,,,,,,,,,834,66,poldrack-categorize,31,138831,0.0-30.0,d00d4a58-8272-4b02-bfcd-6e8a14727a8a,,1500,250,stim,,"<div class = centerbox><div class = stroop-stim style = ""color:blue"">GREEN</div></div>","66,71,82",1500,practice,TRUE,66,500,incongruent,blue,green,,,,,-1,-1,poldrack-single-stim,32,139592,0.0-31.0,d00d4a58-8272-4b02-bfcd-6e8a14727a8a,,500,500,fixation,,<div class = centerbox><div class = fixation>+</div></div>,none,500,practice,,,,,,,,,,,647,66,poldrack-categorize,33,142105,0.0-32.0,d00d4a58-8272-4b02-bfcd-6e8a14727a8a,,1500,250,stim,,"<div class = centerbox><div class = stroop-stim style = ""color:blue"">BLUE</div></div>","66,71,82",1500,practice,TRUE,66,500,congruent,blue,blue,,,,,-1,-1,poldrack-single-stim,34,142866,0.0-33.0,d00d4a58-8272-4b02-bfcd-6e8a14727a8a,,500,500,fixation,,<div class = centerbox><div class = fixation>+</div></div>,none,500,practice,,,,,,,,,,,829,82,poldrack-categorize,35,145379,0.0-34.0,d00d4a58-8272-4b02-bfcd-6e8a14727a8a,,1500,250,stim,,"<div class = centerbox><div class = stroop-stim style = ""color:red"">RED</div></div>","66,71,82",1500,practice,TRUE,82,500,congruent,red,red,,,,,-1,-1,poldrack-single-stim,36,146140,0.0-35.0,d00d4a58-8272-4b02-bfcd-6e8a14727a8a,,500,500,fixation,,<div class = centerbox><div class = fixation>+</div></div>,none,500,practice,,,,,,,,,,,923,66,poldrack-categorize,37,148653,0.0-36.0,d00d4a58-8272-4b02-bfcd-6e8a14727a8a,,1500,250,stim,,"<div class = centerbox><div class = stroop-stim style = ""color:blue"">RED</div></div>","66,71,82",1500,practice,TRUE,66,500,incongruent,blue,red,,,,,-1,-1,poldrack-single-stim,38,149413,0.0-37.0,d00d4a58-8272-4b02-bfcd-6e8a14727a8a,,500,500,fixation,,<div class = centerbox><div class = fixation>+</div></div>,none,500,practice,,,,,,,,,,,617,71,poldrack-categorize,39,151927,0.0-38.0,d00d4a58-8272-4b02-bfcd-6e8a14727a8a,,1500,250,stim,,"<div class = centerbox><div class = stroop-stim style = ""color:green"">GREEN</div></div>","66,71,82",1500,practice,TRUE,71,500,congruent,green,green,,,,,-1,-1,poldrack-single-stim,40,152687,0.0-39.0,d00d4a58-8272-4b02-bfcd-6e8a14727a8a,,500,500,fixation,,<div class = centerbox><div class = fixation>+</div></div>,none,500,practice,,,,,,,,,,,887,66,poldrack-categorize,41,155198,0.0-40.0,d00d4a58-8272-4b02-bfcd-6e8a14727a8a,,1500,250,stim,,"<div class = centerbox><div class = stroop-stim style = ""color:blue"">RED</div></div>","66,71,82",1500,practice,TRUE,66,500,incongruent,blue,red,,,,,-1,-1,poldrack-single-stim,42,155955,0.0-41.0,d00d4a58-8272-4b02-bfcd-6e8a14727a8a,,500,500,fixation,,<div class = centerbox><div class = fixation>+</div></div>,none,500,practice,,,,,,,,,,,586,71,poldrack-categorize,43,158468,0.0-42.0,d00d4a58-8272-4b02-bfcd-6e8a14727a8a,,1500,250,stim,,"<div class = centerbox><div class = stroop-stim style = ""color:green"">RED</div></div>","66,71,82",1500,practice,TRUE,71,500,incongruent,green,red,,,,,-1,-1,poldrack-single-stim,44,159229,0.0-43.0,d00d4a58-8272-4b02-bfcd-6e8a14727a8a,,500,500,fixation,,<div class = centerbox><div class = fixation>+</div></div>,none,500,practice,,,,,,,,,,,760,71,poldrack-categorize,45,161742,0.0-44.0,d00d4a58-8272-4b02-bfcd-6e8a14727a8a,,1500,250,stim,,"<div class = centerbox><div class = stroop-stim style = ""color:green"">BLUE</div></div>","66,71,82",1500,practice,TRUE,71,500,incongruent,green,blue,,,,,-1,-1,poldrack-single-stim,46,162503,0.0-45.0,d00d4a58-8272-4b02-bfcd-6e8a14727a8a,,500,500,fixation,,<div class = centerbox><div class = fixation>+</div></div>,none,500,practice,,,,,,,,,,,718,66,poldrack-categorize,47,165016,0.0-46.0,d00d4a58-8272-4b02-bfcd-6e8a14727a8a,,1500,250,stim,,"<div class = centerbox><div class = stroop-stim style = ""color:blue"">BLUE</div></div>","66,71,82",1500,practice,TRUE,66,500,congruent,blue,blue,,,,,-1,-1,poldrack-single-stim,48,165777,0.0-47.0,d00d4a58-8272-4b02-bfcd-6e8a14727a8a,,500,500,fixation,,<div class = centerbox><div class = fixation>+</div></div>,none,500,practice,,,,,,,,,,,624,82,poldrack-categorize,49,168280,0.0-48.0,d00d4a58-8272-4b02-bfcd-6e8a14727a8a,,1500,250,stim,,"<div class = centerbox><div class = stroop-stim style = ""color:red"">GREEN</div></div>","66,71,82",1500,practice,TRUE,82,500,incongruent,red,green,,,,,-1,-1,poldrack-single-stim,50,169039,0.0-49.0,d00d4a58-8272-4b02-bfcd-6e8a14727a8a,,500,500,fixation,,<div class = centerbox><div class = fixation>+</div></div>,none,500,practice,,,,,,,,,,,1121,66,poldrack-categorize,51,171555,0.0-50.0,d00d4a58-8272-4b02-bfcd-6e8a14727a8a,,1500,250,stim,,"<div class = centerbox><div class = stroop-stim style = ""color:blue"">BLUE</div></div>","66,71,82",1500,practice,TRUE,66,500,congruent,blue,blue,,,,,4342,13,poldrack-text,52,176153,0.0-52.0,d00d4a58-8272-4b02-bfcd-6e8a14727a8a,<div class = centerbox><p class = center-block-text>We will now start the test. Respond exactly like you did during practice.</p><p class = center-block-text>Press <strong>enter</strong> to begin the test.</p></div>,4342,1000,test_intro,,,,,,,,,,,,,,,,-1,-1,poldrack-single-stim,53,177662,0.0-53.0,d00d4a58-8272-4b02-bfcd-6e8a14727a8a,,500,500,fixation,,<div class = centerbox><div class = fixation>+</div></div>,none,500,test,,,,,,,,,,,606,82,poldrack-categorize,54,180169,0.0-54.0,d00d4a58-8272-4b02-bfcd-6e8a14727a8a,,1500,250,stim,,"<div class = centerbox><div class = stroop-stim style = ""color:red"">RED</div></div>","66,71,82",1500,test,TRUE,82,500,congruent,red,red,,,,,-1,-1,poldrack-single-stim,55,180930,0.0-55.0,d00d4a58-8272-4b02-bfcd-6e8a14727a8a,,500,500,fixation,,<div class = centerbox><div class = fixation>+</div></div>,none,500,test,,,,,,,,,,,527,82,poldrack-categorize,56,183443,0.0-56.0,d00d4a58-8272-4b02-bfcd-6e8a14727a8a,,1500,250,stim,,"<div class = centerbox><div class = stroop-stim style = ""color:red"">GREEN</div></div>","66,71,82",1500,test,TRUE,82,500,incongruent,red,green,,,,,-1,-1,poldrack-single-stim,57,184204,0.0-57.0,d00d4a58-8272-4b02-bfcd-6e8a14727a8a,,500,500,fixation,,<div class = centerbox><div class = fixation>+</div></div>,none,500,test,,,,,,,,,,,611,71,poldrack-categorize,58,186717,0.0-58.0,d00d4a58-8272-4b02-bfcd-6e8a14727a8a,,1500,250,stim,,"<div class = centerbox><div class = stroop-stim style = ""color:green"">GREEN</div></div>","66,71,82",1500,test,TRUE,71,500,congruent,green,green,,,,,-1,-1,poldrack-single-stim,59,187478,0.0-59.0,d00d4a58-8272-4b02-bfcd-6e8a14727a8a,,500,500,fixation,,<div class = centerbox><div class = fixation>+</div></div>,none,500,test,,,,,,,,,,,666,82,poldrack-categorize,60,189991,0.0-60.0,d00d4a58-8272-4b02-bfcd-6e8a14727a8a,,1500,250,stim,,"<div class = centerbox><div class = stroop-stim style = ""color:red"">GREEN</div></div>","66,71,82",1500,test,TRUE,82,500,incongruent,red,green,,,,,-1,-1,poldrack-single-stim,61,190748,0.0-61.0,d00d4a58-8272-4b02-bfcd-6e8a14727a8a,,500,500,fixation,,<div class = centerbox><div class = fixation>+</div></div>,none,500,test,,,,,,,,,,,740,82,poldrack-categorize,62,193259,0.0-62.0,d00d4a58-8272-4b02-bfcd-6e8a14727a8a,,1500,250,stim,,"<div class = centerbox><div class = stroop-stim style = ""color:red"">RED</div></div>","66,71,82",1500,test,TRUE,82,500,congruent,red,red,,,,,-1,-1,poldrack-single-stim,63,194017,0.0-63.0,d00d4a58-8272-4b02-bfcd-6e8a14727a8a,,500,500,fixation,,<div class = centerbox><div class = fixation>+</div></div>,none,500,test,,,,,,,,,,,913,82,poldrack-categorize,64,196523,0.0-64.0,d00d4a58-8272-4b02-bfcd-6e8a14727a8a,,1500,250,stim,,"<div class = centerbox><div class = stroop-stim style = ""color:red"">BLUE</div></div>","66,71,82",1500,test,TRUE,82,500,incongruent,red,blue,,,,,-1,-1,poldrack-single-stim,65,197282,0.0-65.0,d00d4a58-8272-4b02-bfcd-6e8a14727a8a,,500,500,fixation,,<div class = centerbox><div class = fixation>+</div></div>,none,500,test,,,,,,,,,,,581,82,poldrack-categorize,66,199795,0.0-66.0,d00d4a58-8272-4b02-bfcd-6e8a14727a8a,,1500,250,stim,,"<div class = centerbox><div class = stroop-stim style = ""color:red"">BLUE</div></div>","66,71,82",1500,test,TRUE,82,500,incongruent,red,blue,,,,,-1,-1,poldrack-single-stim,67,200556,0.0-67.0,d00d4a58-8272-4b02-bfcd-6e8a14727a8a,,500,500,fixation,,<div class = centerbox><div class = fixation>+</div></div>,none,500,test,,,,,,,,,,,739,66,poldrack-categorize,68,203069,0.0-68.0,d00d4a58-8272-4b02-bfcd-6e8a14727a8a,,1500,250,stim,,"<div class = centerbox><div class = stroop-stim style = ""color:blue"">BLUE</div></div>","66,71,82",1500,test,TRUE,66,500,congruent,blue,blue,,,,,-1,-1,poldrack-single-stim,69,203829,0.0-69.0,d00d4a58-8272-4b02-bfcd-6e8a14727a8a,,500,500,fixation,,<div class = centerbox><div class = fixation>+</div></div>,none,500,test,,,,,,,,,,,610,66,poldrack-categorize,70,206343,0.0-70.0,d00d4a58-8272-4b02-bfcd-6e8a14727a8a,,1500,250,stim,,"<div class = centerbox><div class = stroop-stim style = ""color:blue"">GREEN</div></div>","66,71,82",1500,test,TRUE,66,500,incongruent,blue,green,,,,,-1,-1,poldrack-single-stim,71,207103,0.0-71.0,d00d4a58-8272-4b02-bfcd-6e8a14727a8a,,500,500,fixation,,<div class = centerbox><div class = fixation>+</div></div>,none,500,test,,,,,,,,,,,927,66,poldrack-categorize,72,209611,0.0-72.0,d00d4a58-8272-4b02-bfcd-6e8a14727a8a,,1500,250,stim,,"<div class = centerbox><div class = stroop-stim style = ""color:blue"">BLUE</div></div>","66,71,82",1500,test,TRUE,66,500,congruent,blue,blue,,,,,-1,-1,poldrack-single-stim,73,210371,0.0-73.0,d00d4a58-8272-4b02-bfcd-6e8a14727a8a,,500,500,fixation,,<div class = centerbox><div class = fixation>+</div></div>,none,500,test,,,,,,,,,,,706,71,poldrack-categorize,74,212885,0.0-74.0,d00d4a58-8272-4b02-bfcd-6e8a14727a8a,,1500,250,stim,,"<div class = centerbox><div class = stroop-stim style = ""color:green"">GREEN</div></div>","66,71,82",1500,test,TRUE,71,500,congruent,green,green,,,,,-1,-1,poldrack-single-stim,75,213644,0.0-75.0,d00d4a58-8272-4b02-bfcd-6e8a14727a8a,,500,500,fixation,,<div class = centerbox><div class = fixation>+</div></div>,none,500,test,,,,,,,,,,,640,82,poldrack-categorize,76,216158,0.0-76.0,d00d4a58-8272-4b02-bfcd-6e8a14727a8a,,1500,250,stim,,"<div class = centerbox><div class = stroop-stim style = ""color:red"">GREEN</div></div>","66,71,82",1500,test,TRUE,82,500,incongruent,red,green,,,,,-1,-1,poldrack-single-stim,77,216919,0.0-77.0,d00d4a58-8272-4b02-bfcd-6e8a14727a8a,,500,500,fixation,,<div class = centerbox><div class = fixation>+</div></div>,none,500,test,,,,,,,,,,,-1,-1,poldrack-categorize,78,219432,0.0-78.0,d00d4a58-8272-4b02-bfcd-6e8a14727a8a,,1500,250,stim,,"<div class = centerbox><div class = stroop-stim style = ""color:red"">GREEN</div></div>","66,71,82",1500,test,FALSE,82,500,incongruent,red,green,,,,,-1,-1,poldrack-single-stim,79,220192,0.0-79.0,d00d4a58-8272-4b02-bfcd-6e8a14727a8a,,500,500,fixation,,<div class = centerbox><div class = fixation>+</div></div>,none,500,test,,,,,,,,,,,408,82,poldrack-categorize,80,222700,0.0-80.0,d00d4a58-8272-4b02-bfcd-6e8a14727a8a,,1500,250,stim,,"<div class = centerbox><div class = stroop-stim style = ""color:red"">GREEN</div></div>","66,71,82",1500,test,TRUE,82,500,incongruent,red,green,,,,,-1,-1,poldrack-single-stim,81,223461,0.0-81.0,d00d4a58-8272-4b02-bfcd-6e8a14727a8a,,500,500,fixation,,<div class = centerbox><div class = fixation>+</div></div>,none,500,test,,,,,,,,,,,384,82,poldrack-categorize,82,225974,0.0-82.0,d00d4a58-8272-4b02-bfcd-6e8a14727a8a,,1500,250,stim,,"<div class = centerbox><div class = stroop-stim style = ""color:red"">RED</div></div>","66,71,82",1500,test,TRUE,82,500,congruent,red,red,,,,,-1,-1,poldrack-single-stim,83,226734,0.0-83.0,d00d4a58-8272-4b02-bfcd-6e8a14727a8a,,500,500,fixation,,<div class = centerbox><div class = fixation>+</div></div>,none,500,test,,,,,,,,,,,1198,71,poldrack-categorize,84,229248,0.0-84.0,d00d4a58-8272-4b02-bfcd-6e8a14727a8a,,1500,250,stim,,"<div class = centerbox><div class = stroop-stim style = ""color:green"">GREEN</div></div>","66,71,82",1500,test,TRUE,71,500,congruent,green,green,,,,,-1,-1,poldrack-single-stim,85,230008,0.0-85.0,d00d4a58-8272-4b02-bfcd-6e8a14727a8a,,500,500,fixation,,<div class = centerbox><div class = fixation>+</div></div>,none,500,test,,,,,,,,,,,621,71,poldrack-categorize,86,232522,0.0-86.0,d00d4a58-8272-4b02-bfcd-6e8a14727a8a,,1500,250,stim,,"<div class = centerbox><div class = stroop-stim style = ""color:green"">RED</div></div>","66,71,82",1500,test,TRUE,71,500,incongruent,green,red,,,,,-1,-1,poldrack-single-stim,87,233283,0.0-87.0,d00d4a58-8272-4b02-bfcd-6e8a14727a8a,,500,500,fixation,,<div class = centerbox><div class = fixation>+</div></div>,none,500,test,,,,,,,,,,,754,66,poldrack-categorize,88,235797,0.0-88.0,d00d4a58-8272-4b02-bfcd-6e8a14727a8a,,1500,250,stim,,"<div class = centerbox><div class = stroop-stim style = ""color:blue"">BLUE</div></div>","66,71,82",1500,test,TRUE,66,500,congruent,blue,blue,,,,,-1,-1,poldrack-single-stim,89,236556,0.0-89.0,d00d4a58-8272-4b02-bfcd-6e8a14727a8a,,500,500,fixation,,<div class = centerbox><div class = fixation>+</div></div>,none,500,test,,,,,,,,,,,570,66,poldrack-categorize,90,239069,0.0-90.0,d00d4a58-8272-4b02-bfcd-6e8a14727a8a,,1500,250,stim,,"<div class = centerbox><div class = stroop-stim style = ""color:blue"">GREEN</div></div>","66,71,82",1500,test,TRUE,66,500,incongruent,blue,green,,,,,-1,-1,poldrack-single-stim,91,239830,0.0-91.0,d00d4a58-8272-4b02-bfcd-6e8a14727a8a,,500,500,fixation,,<div class = centerbox><div class = fixation>+</div></div>,none,500,test,,,,,,,,,,,1286,66,poldrack-categorize,92,242343,0.0-92.0,d00d4a58-8272-4b02-bfcd-6e8a14727a8a,,1500,250,stim,,"<div class = centerbox><div class = stroop-stim style = ""color:blue"">BLUE</div></div>","66,71,82",1500,test,TRUE,66,500,congruent,blue,blue,,,,,-1,-1,poldrack-single-stim,93,243104,0.0-93.0,d00d4a58-8272-4b02-bfcd-6e8a14727a8a,,500,500,fixation,,<div class = centerbox><div class = fixation>+</div></div>,none,500,test,,,,,,,,,,,813,66,poldrack-categorize,94,245617,0.0-94.0,d00d4a58-8272-4b02-bfcd-6e8a14727a8a,,1500,250,stim,,"<div class = centerbox><div class = stroop-stim style = ""color:blue"">GREEN</div></div>","66,71,82",1500,test,TRUE,66,500,incongruent,blue,green,,,,,-1,-1,poldrack-single-stim,95,246377,0.0-95.0,d00d4a58-8272-4b02-bfcd-6e8a14727a8a,,500,500,fixation,,<div class = centerbox><div class = fixation>+</div></div>,none,500,test,,,,,,,,,,,1202,71,poldrack-categorize,96,248891,0.0-96.0,d00d4a58-8272-4b02-bfcd-6e8a14727a8a,,1500,250,stim,,"<div class = centerbox><div class = stroop-stim style = ""color:green"">BLUE</div></div>","66,71,82",1500,test,TRUE,71,500,incongruent,green,blue,,,,,-1,-1,poldrack-single-stim,97,249648,0.0-97.0,d00d4a58-8272-4b02-bfcd-6e8a14727a8a,,500,500,fixation,,<div class = centerbox><div class = fixation>+</div></div>,none,500,test,,,,,,,,,,,859,66,poldrack-categorize,98,252159,0.0-98.0,d00d4a58-8272-4b02-bfcd-6e8a14727a8a,,1500,250,stim,,"<div class = centerbox><div class = stroop-stim style = ""color:blue"">BLUE</div></div>","66,71,82",1500,test,TRUE,66,500,congruent,blue,blue,,,,,-1,-1,poldrack-single-stim,99,252919,0.0-99.0,d00d4a58-8272-4b02-bfcd-6e8a14727a8a,,500,500,fixation,,<div class = centerbox><div class = fixation>+</div></div>,none,500,test,,,,,,,,,,,900,71,poldrack-categorize,100,255427,0.0-100.0,d00d4a58-8272-4b02-bfcd-6e8a14727a8a,,1500,250,stim,,"<div class = centerbox><div class = stroop-stim style = ""color:green"">BLUE</div></div>","66,71,82",1500,test,TRUE,71,500,incongruent,green,blue,,,,,-1,-1,poldrack-single-stim,101,256187,0.0-101.0,d00d4a58-8272-4b02-bfcd-6e8a14727a8a,,500,500,fixation,,<div class = centerbox><div class = fixation>+</div></div>,none,500,test,,,,,,,,,,,856,66,poldrack-categorize,102,258701,0.0-102.0,d00d4a58-8272-4b02-bfcd-6e8a14727a8a,,1500,250,stim,,"<div class = centerbox><div class = stroop-stim style = ""color:blue"">RED</div></div>","66,71,82",1500,test,TRUE,66,500,incongruent,blue,red,,,,,-1,-1,poldrack-single-stim,103,259457,0.0-103.0,d00d4a58-8272-4b02-bfcd-6e8a14727a8a,,500,500,fixation,,<div class = centerbox><div class = fixation>+</div></div>,none,500,test,,,,,,,,,,,652,66,poldrack-categorize,104,261969,0.0-104.0,d00d4a58-8272-4b02-bfcd-6e8a14727a8a,,1500,250,stim,,"<div class = centerbox><div class = stroop-stim style = ""color:blue"">RED</div></div>","66,71,82",1500,test,TRUE,66,500,incongruent,blue,red,,,,,-1,-1,poldrack-single-stim,105,262729,0.0-105.0,d00d4a58-8272-4b02-bfcd-6e8a14727a8a,,500,500,fixation,,<div class = centerbox><div class = fixation>+</div></div>,none,500,test,,,,,,,,,,,761,66,poldrack-categorize,106,265242,0.0-106.0,d00d4a58-8272-4b02-bfcd-6e8a14727a8a,,1500,250,stim,,"<div class = centerbox><div class = stroop-stim style = ""color:blue"">RED</div></div>","66,71,82",1500,test,TRUE,66,500,incongruent,blue,red,,,,,-1,-1,poldrack-single-stim,107,266003,0.0-107.0,d00d4a58-8272-4b02-bfcd-6e8a14727a8a,,500,500,fixation,,<div class = centerbox><div class = fixation>+</div></div>,none,500,test,,,,,,,,,,,769,82,poldrack-categorize,108,268516,0.0-108.0,d00d4a58-8272-4b02-bfcd-6e8a14727a8a,,1500,250,stim,,"<div class = centerbox><div class = stroop-stim style = ""color:red"">GREEN</div></div>","66,71,82",1500,test,TRUE,82,500,incongruent,red,green,,,,,-1,-1,poldrack-single-stim,109,269276,0.0-109.0,d00d4a58-8272-4b02-bfcd-6e8a14727a8a,,500,500,fixation,,<div class = centerbox><div class = fixation>+</div></div>,none,500,test,,,,,,,,,,,1222,66,poldrack-categorize,110,271790,0.0-110.0,d00d4a58-8272-4b02-bfcd-6e8a14727a8a,,1500,250,stim,,"<div class = centerbox><div class = stroop-stim style = ""color:blue"">RED</div></div>","66,71,82",1500,test,TRUE,66,500,incongruent,blue,red,,,,,-1,-1,poldrack-single-stim,111,272551,0.0-111.0,d00d4a58-8272-4b02-bfcd-6e8a14727a8a,,500,500,fixation,,<div class = centerbox><div class = fixation>+</div></div>,none,500,test,,,,,,,,,,,516,66,poldrack-categorize,112,275064,0.0-112.0,d00d4a58-8272-4b02-bfcd-6e8a14727a8a,,1500,250,stim,,"<div class = centerbox><div class = stroop-stim style = ""color:blue"">BLUE</div></div>","66,71,82",1500,test,TRUE,66,500,congruent,blue,blue,,,,,-1,-1,poldrack-single-stim,113,275824,0.0-113.0,d00d4a58-8272-4b02-bfcd-6e8a14727a8a,,500,500,fixation,,<div class = centerbox><div class = fixation>+</div></div>,none,500,test,,,,,,,,,,,761,66,poldrack-categorize,114,278336,0.0-114.0,d00d4a58-8272-4b02-bfcd-6e8a14727a8a,,1500,250,stim,,"<div class = centerbox><div class = stroop-stim style = ""color:blue"">BLUE</div></div>","66,71,82",1500,test,TRUE,66,500,congruent,blue,blue,,,,,-1,-1,poldrack-single-stim,115,279092,0.0-115.0,d00d4a58-8272-4b02-bfcd-6e8a14727a8a,,500,500,fixation,,<div class = centerbox><div class = fixation>+</div></div>,none,500,test,,,,,,,,,,,638,82,poldrack-categorize,116,281606,0.0-116.0,d00d4a58-8272-4b02-bfcd-6e8a14727a8a,,1500,250,stim,,"<div class = centerbox><div class = stroop-stim style = ""color:red"">RED</div></div>","66,71,82",1500,test,TRUE,82,500,congruent,red,red,,,,,-1,-1,poldrack-single-stim,117,282366,0.0-117.0,d00d4a58-8272-4b02-bfcd-6e8a14727a8a,,500,500,fixation,,<div class = centerbox><div class = fixation>+</div></div>,none,500,test,,,,,,,,,,,699,71,poldrack-categorize,118,284879,0.0-118.0,d00d4a58-8272-4b02-bfcd-6e8a14727a8a,,1500,250,stim,,"<div class = centerbox><div class = stroop-stim style = ""color:green"">RED</div></div>","66,71,82",1500,test,TRUE,71,500,incongruent,green,red,,,,,-1,-1,poldrack-single-stim,119,285640,0.0-119.0,d00d4a58-8272-4b02-bfcd-6e8a14727a8a,,500,500,fixation,,<div class = centerbox><div class = fixation>+</div></div>,none,500,test,,,,,,,,,,,489,71,poldrack-categorize,120,288149,0.0-120.0,d00d4a58-8272-4b02-bfcd-6e8a14727a8a,,1500,250,stim,,"<div class = centerbox><div class = stroop-stim style = ""color:green"">BLUE</div></div>","66,71,82",1500,test,TRUE,71,500,incongruent,green,blue,,,,,-1,-1,poldrack-single-stim,121,288908,0.0-121.0,d00d4a58-8272-4b02-bfcd-6e8a14727a8a,,500,500,fixation,,<div class = centerbox><div class = fixation>+</div></div>,none,500,test,,,,,,,,,,,733,66,poldrack-categorize,122,291420,0.0-122.0,d00d4a58-8272-4b02-bfcd-6e8a14727a8a,,1500,250,stim,,"<div class = centerbox><div class = stroop-stim style = ""color:blue"">RED</div></div>","66,71,82",1500,test,TRUE,66,500,incongruent,blue,red,,,,,-1,-1,poldrack-single-stim,123,292176,0.0-123.0,d00d4a58-8272-4b02-bfcd-6e8a14727a8a,,500,500,fixation,,<div class = centerbox><div class = fixation>+</div></div>,none,500,test,,,,,,,,,,,748,66,poldrack-categorize,124,294689,0.0-124.0,d00d4a58-8272-4b02-bfcd-6e8a14727a8a,,1500,250,stim,,"<div class = centerbox><div class = stroop-stim style = ""color:blue"">BLUE</div></div>","66,71,82",1500,test,TRUE,66,500,congruent,blue,blue,,,,,-1,-1,poldrack-single-stim,125,295450,0.0-125.0,d00d4a58-8272-4b02-bfcd-6e8a14727a8a,,500,500,fixation,,<div class = centerbox><div class = fixation>+</div></div>,none,500,test,,,,,,,,,,,1110,66,poldrack-categorize,126,297963,0.0-126.0,d00d4a58-8272-4b02-bfcd-6e8a14727a8a,,1500,250,stim,,"<div class = centerbox><div class = stroop-stim style = ""color:blue"">GREEN</div></div>","66,71,82",1500,test,TRUE,66,500,incongruent,blue,green,,,,,-1,-1,poldrack-single-stim,127,298724,0.0-127.0,d00d4a58-8272-4b02-bfcd-6e8a14727a8a,,500,500,fixation,,<div class = centerbox><div class = fixation>+</div></div>,none,500,test,,,,,,,,,,,509,66,poldrack-categorize,128,301237,0.0-128.0,d00d4a58-8272-4b02-bfcd-6e8a14727a8a,,1500,250,stim,,"<div class = centerbox><div class = stroop-stim style = ""color:blue"">GREEN</div></div>","66,71,82",1500,test,TRUE,66,500,incongruent,blue,green,,,,,-1,-1,poldrack-single-stim,129,301998,0.0-129.0,d00d4a58-8272-4b02-bfcd-6e8a14727a8a,,500,500,fixation,,<div class = centerbox><div class = fixation>+</div></div>,none,500,test,,,,,,,,,,,515,66,poldrack-categorize,130,304511,0.0-130.0,d00d4a58-8272-4b02-bfcd-6e8a14727a8a,,1500,250,stim,,"<div class = centerbox><div class = stroop-stim style = ""color:blue"">BLUE</div></div>","66,71,82",1500,test,TRUE,66,500,congruent,blue,blue,,,,,-1,-1,poldrack-single-stim,131,305272,0.0-131.0,d00d4a58-8272-4b02-bfcd-6e8a14727a8a,,500,500,fixation,,<div class = centerbox><div class = fixation>+</div></div>,none,500,test,,,,,,,,,,,505,71,poldrack-categorize,132,307785,0.0-132.0,d00d4a58-8272-4b02-bfcd-6e8a14727a8a,,1500,250,stim,,"<div class = centerbox><div class = stroop-stim style = ""color:green"">GREEN</div></div>","66,71,82",1500,test,TRUE,71,500,congruent,green,green,,,,,-1,-1,poldrack-single-stim,133,308545,0.0-133.0,d00d4a58-8272-4b02-bfcd-6e8a14727a8a,,500,500,fixation,,<div class = centerbox><div class = fixation>+</div></div>,none,500,test,,,,,,,,,,,871,66,poldrack-categorize,134,311053,0.0-134.0,d00d4a58-8272-4b02-bfcd-6e8a14727a8a,,1500,250,stim,,"<div class = centerbox><div class = stroop-stim style = ""color:blue"">RED</div></div>","66,71,82",1500,test,TRUE,66,500,incongruent,blue,red,,,,,-1,-1,poldrack-single-stim,135,311813,0.0-135.0,d00d4a58-8272-4b02-bfcd-6e8a14727a8a,,500,500,fixation,,<div class = centerbox><div class = fixation>+</div></div>,none,500,test,,,,,,,,,,,1034,71,poldrack-categorize,136,314326,0.0-136.0,d00d4a58-8272-4b02-bfcd-6e8a14727a8a,,1500,250,stim,,"<div class = centerbox><div class = stroop-stim style = ""color:green"">GREEN</div></div>","66,71,82",1500,test,TRUE,71,500,congruent,green,green,,,,,-1,-1,poldrack-single-stim,137,315087,0.0-137.0,d00d4a58-8272-4b02-bfcd-6e8a14727a8a,,500,500,fixation,,<div class = centerbox><div class = fixation>+</div></div>,none,500,test,,,,,,,,,,,616,82,poldrack-categorize,138,317600,0.0-138.0,d00d4a58-8272-4b02-bfcd-6e8a14727a8a,,1500,250,stim,,"<div class = centerbox><div class = stroop-stim style = ""color:red"">RED</div></div>","66,71,82",1500,test,TRUE,82,500,congruent,red,red,,,,,-1,-1,poldrack-single-stim,139,318361,0.0-139.0,d00d4a58-8272-4b02-bfcd-6e8a14727a8a,,500,500,fixation,,<div class = centerbox><div class = fixation>+</div></div>,none,500,test,,,,,,,,,,,607,66,poldrack-categorize,140,320874,0.0-140.0,d00d4a58-8272-4b02-bfcd-6e8a14727a8a,,1500,250,stim,,"<div class = centerbox><div class = stroop-stim style = ""color:blue"">BLUE</div></div>","66,71,82",1500,test,TRUE,66,500,congruent,blue,blue,,,,,-1,-1,poldrack-single-stim,141,321635,0.0-141.0,d00d4a58-8272-4b02-bfcd-6e8a14727a8a,,500,500,fixation,,<div class = centerbox><div class = fixation>+</div></div>,none,500,test,,,,,,,,,,,757,82,poldrack-categorize,142,324148,0.0-142.0,d00d4a58-8272-4b02-bfcd-6e8a14727a8a,,1500,250,stim,,"<div class = centerbox><div class = stroop-stim style = ""color:red"">RED</div></div>","66,71,82",1500,test,TRUE,82,500,congruent,red,red,,,,,-1,-1,poldrack-single-stim,143,324908,0.0-143.0,d00d4a58-8272-4b02-bfcd-6e8a14727a8a,,500,500,fixation,,<div class = centerbox><div class = fixation>+</div></div>,none,500,test,,,,,,,,,,,691,66,poldrack-categorize,144,327416,0.0-144.0,d00d4a58-8272-4b02-bfcd-6e8a14727a8a,,1500,250,stim,,"<div class = centerbox><div class = stroop-stim style = ""color:green"">RED</div></div>","66,71,82",1500,test,FALSE,71,500,incongruent,green,red,,,,,-1,-1,poldrack-single-stim,145,328171,0.0-145.0,d00d4a58-8272-4b02-bfcd-6e8a14727a8a,,500,500,fixation,,<div class = centerbox><div class = fixation>+</div></div>,none,500,test,,,,,,,,,,,885,71,poldrack-categorize,146,330678,0.0-146.0,d00d4a58-8272-4b02-bfcd-6e8a14727a8a,,1500,250,stim,,"<div class = centerbox><div class = stroop-stim style = ""color:green"">GREEN</div></div>","66,71,82",1500,test,TRUE,71,500,congruent,green,green,,,,,-1,-1,poldrack-single-stim,147,331439,0.0-147.0,d00d4a58-8272-4b02-bfcd-6e8a14727a8a,,500,500,fixation,,<div class = centerbox><div class = fixation>+</div></div>,none,500,test,,,,,,,,,,,655,82,poldrack-categorize,148,333952,0.0-148.0,d00d4a58-8272-4b02-bfcd-6e8a14727a8a,,1500,250,stim,,"<div class = centerbox><div class = stroop-stim style = ""color:red"">RED</div></div>","66,71,82",1500,test,TRUE,82,500,congruent,red,red,,,,,-1,-1,poldrack-single-stim,149,334711,0.0-149.0,d00d4a58-8272-4b02-bfcd-6e8a14727a8a,,500,500,fixation,,<div class = centerbox><div class = fixation>+</div></div>,none,500,test,,,,,,,,,,,572,82,poldrack-categorize,150,337220,0.0-150.0,d00d4a58-8272-4b02-bfcd-6e8a14727a8a,,1500,250,stim,,"<div class = centerbox><div class = stroop-stim style = ""color:red"">RED</div></div>","66,71,82",1500,test,TRUE,82,500,congruent,red,red,,,,,-1,-1,poldrack-single-stim,151,337981,0.0-151.0,d00d4a58-8272-4b02-bfcd-6e8a14727a8a,,500,500,fixation,,<div class = centerbox><div class = fixation>+</div></div>,none,500,test,,,,,,,,,,,859,66,poldrack-categorize,152,340494,0.0-152.0,d00d4a58-8272-4b02-bfcd-6e8a14727a8a,,1500,250,stim,,"<div class = centerbox><div class = stroop-stim style = ""color:blue"">GREEN</div></div>","66,71,82",1500,test,TRUE,66,500,incongruent,blue,green,,,,,-1,-1,poldrack-single-stim,153,341254,0.0-153.0,d00d4a58-8272-4b02-bfcd-6e8a14727a8a,,500,500,fixation,,<div class = centerbox><div class = fixation>+</div></div>,none,500,test,,,,,,,,,,,720,82,poldrack-categorize,154,343768,0.0-154.0,d00d4a58-8272-4b02-bfcd-6e8a14727a8a,,1500,250,stim,,"<div class = centerbox><div class = stroop-stim style = ""color:red"">BLUE</div></div>","66,71,82",1500,test,TRUE,82,500,incongruent,red,blue,,,,,-1,-1,poldrack-single-stim,155,344528,0.0-155.0,d00d4a58-8272-4b02-bfcd-6e8a14727a8a,,500,500,fixation,,<div class = centerbox><div class = fixation>+</div></div>,none,500,test,,,,,,,,,,,582,71,poldrack-categorize,156,347041,0.0-156.0,d00d4a58-8272-4b02-bfcd-6e8a14727a8a,,1500,250,stim,,"<div class = centerbox><div class = stroop-stim style = ""color:green"">GREEN</div></div>","66,71,82",1500,test,TRUE,71,500,congruent,green,green,,,,,-1,-1,poldrack-single-stim,157,347799,0.0-157.0,d00d4a58-8272-4b02-bfcd-6e8a14727a8a,,500,500,fixation,,<div class = centerbox><div class = fixation>+</div></div>,none,500,test,,,,,,,,,,,975,82,poldrack-categorize,158,350309,0.0-158.0,d00d4a58-8272-4b02-bfcd-6e8a14727a8a,,1500,250,stim,,"<div class = centerbox><div class = stroop-stim style = ""color:red"">BLUE</div></div>","66,71,82",1500,test,TRUE,82,500,incongruent,red,blue,,,,,-1,-1,poldrack-single-stim,159,351070,0.0-159.0,d00d4a58-8272-4b02-bfcd-6e8a14727a8a,,500,500,fixation,,<div class = centerbox><div class = fixation>+</div></div>,none,500,test,,,,,,,,,,,847,71,poldrack-categorize,160,353582,0.0-160.0,d00d4a58-8272-4b02-bfcd-6e8a14727a8a,,1500,250,stim,,"<div class = centerbox><div class = stroop-stim style = ""color:green"">BLUE</div></div>","66,71,82",1500,test,TRUE,71,500,incongruent,green,blue,,,,,-1,-1,poldrack-single-stim,161,354338,0.0-161.0,d00d4a58-8272-4b02-bfcd-6e8a14727a8a,,500,500,fixation,,<div class = centerbox><div class = fixation>+</div></div>,none,500,test,,,,,,,,,,,627,71,poldrack-categorize,162,356852,0.0-162.0,d00d4a58-8272-4b02-bfcd-6e8a14727a8a,,1500,250,stim,,"<div class = centerbox><div class = stroop-stim style = ""color:green"">GREEN</div></div>","66,71,82",1500,test,TRUE,71,500,congruent,green,green,,,,,-1,-1,poldrack-single-stim,163,357612,0.0-163.0,d00d4a58-8272-4b02-bfcd-6e8a14727a8a,,500,500,fixation,,<div class = centerbox><div class = fixation>+</div></div>,none,500,test,,,,,,,,,,,603,82,poldrack-categorize,164,360125,0.0-164.0,d00d4a58-8272-4b02-bfcd-6e8a14727a8a,,1500,250,stim,,"<div class = centerbox><div class = stroop-stim style = ""color:red"">RED</div></div>","66,71,82",1500,test,TRUE,82,500,congruent,red,red,,,,,-1,-1,poldrack-single-stim,165,360886,0.0-165.0,d00d4a58-8272-4b02-bfcd-6e8a14727a8a,,500,500,fixation,,<div class = centerbox><div class = fixation>+</div></div>,none,500,test,,,,,,,,,,,976,82,poldrack-categorize,166,363399,0.0-166.0,d00d4a58-8272-4b02-bfcd-6e8a14727a8a,,1500,250,stim,,"<div class = centerbox><div class = stroop-stim style = ""color:green"">RED</div></div>","66,71,82",1500,test,FALSE,71,500,incongruent,green,red,,,,,-1,-1,poldrack-single-stim,167,364160,0.0-167.0,d00d4a58-8272-4b02-bfcd-6e8a14727a8a,,500,500,fixation,,<div class = centerbox><div class = fixation>+</div></div>,none,500,test,,,,,,,,,,,621,71,poldrack-categorize,168,366673,0.0-168.0,d00d4a58-8272-4b02-bfcd-6e8a14727a8a,,1500,250,stim,,"<div class = centerbox><div class = stroop-stim style = ""color:green"">RED</div></div>","66,71,82",1500,test,TRUE,71,500,incongruent,green,red,,,,,-1,-1,poldrack-single-stim,169,367430,0.0-169.0,d00d4a58-8272-4b02-bfcd-6e8a14727a8a,,500,500,fixation,,<div class = centerbox><div class = fixation>+</div></div>,none,500,test,,,,,,,,,,,825,82,poldrack-categorize,170,369941,0.0-170.0,d00d4a58-8272-4b02-bfcd-6e8a14727a8a,,1500,250,stim,,"<div class = centerbox><div class = stroop-stim style = ""color:red"">RED</div></div>","66,71,82",1500,test,TRUE,82,500,congruent,red,red,,,,,-1,-1,poldrack-single-stim,171,370696,0.0-171.0,d00d4a58-8272-4b02-bfcd-6e8a14727a8a,,500,500,fixation,,<div class = centerbox><div class = fixation>+</div></div>,none,500,test,,,,,,,,,,,790,82,poldrack-categorize,172,373207,0.0-172.0,d00d4a58-8272-4b02-bfcd-6e8a14727a8a,,1500,250,stim,,"<div class = centerbox><div class = stroop-stim style = ""color:red"">BLUE</div></div>","66,71,82",1500,test,TRUE,82,500,incongruent,red,blue,,,,,-1,-1,poldrack-single-stim,173,373964,0.0-173.0,d00d4a58-8272-4b02-bfcd-6e8a14727a8a,,500,500,fixation,,<div class = centerbox><div class = fixation>+</div></div>,none,500,test,,,,,,,,,,,417,82,poldrack-categorize,174,376476,0.0-174.0,d00d4a58-8272-4b02-bfcd-6e8a14727a8a,,1500,250,stim,,"<div class = centerbox><div class = stroop-stim style = ""color:red"">RED</div></div>","66,71,82",1500,test,TRUE,82,500,congruent,red,red,,,,,-1,-1,poldrack-single-stim,175,377237,0.0-175.0,d00d4a58-8272-4b02-bfcd-6e8a14727a8a,,500,500,fixation,,<div class = centerbox><div class = fixation>+</div></div>,none,500,test,,,,,,,,,,,905,82,poldrack-categorize,176,379745,0.0-176.0,d00d4a58-8272-4b02-bfcd-6e8a14727a8a,,1500,250,stim,,"<div class = centerbox><div class = stroop-stim style = ""color:red"">RED</div></div>","66,71,82",1500,test,TRUE,82,500,congruent,red,red,,,,,-1,-1,poldrack-single-stim,177,380505,0.0-177.0,d00d4a58-8272-4b02-bfcd-6e8a14727a8a,,500,500,fixation,,<div class = centerbox><div class = fixation>+</div></div>,none,500,test,,,,,,,,,,,883,71,poldrack-categorize,178,383018,0.0-178.0,d00d4a58-8272-4b02-bfcd-6e8a14727a8a,,1500,250,stim,,"<div class = centerbox><div class = stroop-stim style = ""color:green"">GREEN</div></div>","66,71,82",1500,test,TRUE,71,500,congruent,green,green,,,,,-1,-1,poldrack-single-stim,179,383779,0.0-179.0,d00d4a58-8272-4b02-bfcd-6e8a14727a8a,,500,500,fixation,,<div class = centerbox><div class = fixation>+</div></div>,none,500,test,,,,,,,,,,,576,71,poldrack-categorize,180,386292,0.0-180.0,d00d4a58-8272-4b02-bfcd-6e8a14727a8a,,1500,250,stim,,"<div class = centerbox><div class = stroop-stim style = ""color:green"">RED</div></div>","66,71,82",1500,test,TRUE,71,500,incongruent,green,red,,,,,-1,-1,poldrack-single-stim,181,387053,0.0-181.0,d00d4a58-8272-4b02-bfcd-6e8a14727a8a,,500,500,fixation,,<div class = centerbox><div class = fixation>+</div></div>,none,500,test,,,,,,,,,,,622,71,poldrack-categorize,182,389566,0.0-182.0,d00d4a58-8272-4b02-bfcd-6e8a14727a8a,,1500,250,stim,,"<div class = centerbox><div class = stroop-stim style = ""color:green"">GREEN</div></div>","66,71,82",1500,test,TRUE,71,500,congruent,green,green,,,,,-1,-1,poldrack-single-stim,183,390327,0.0-183.0,d00d4a58-8272-4b02-bfcd-6e8a14727a8a,,500,500,fixation,,<div class = centerbox><div class = fixation>+</div></div>,none,500,test,,,,,,,,,,,580,71,poldrack-categorize,184,392840,0.0-184.0,d00d4a58-8272-4b02-bfcd-6e8a14727a8a,,1500,250,stim,,"<div class = centerbox><div class = stroop-stim style = ""color:green"">BLUE</div></div>","66,71,82",1500,test,TRUE,71,500,incongruent,green,blue,,,,,-1,-1,poldrack-single-stim,185,393597,0.0-185.0,d00d4a58-8272-4b02-bfcd-6e8a14727a8a,,500,500,fixation,,<div class = centerbox><div class = fixation>+</div></div>,none,500,test,,,,,,,,,,,864,71,poldrack-categorize,186,396108,0.0-186.0,d00d4a58-8272-4b02-bfcd-6e8a14727a8a,,1500,250,stim,,"<div class = centerbox><div class = stroop-stim style = ""color:green"">GREEN</div></div>","66,71,82",1500,test,TRUE,71,500,congruent,green,green,,,,,-1,-1,poldrack-single-stim,187,396869,0.0-187.0,d00d4a58-8272-4b02-bfcd-6e8a14727a8a,,500,500,fixation,,<div class = centerbox><div class = fixation>+</div></div>,none,500,test,,,,,,,,,,,877,82,poldrack-categorize,188,399382,0.0-188.0,d00d4a58-8272-4b02-bfcd-6e8a14727a8a,,1500,250,stim,,"<div class = centerbox><div class = stroop-stim style = ""color:red"">RED</div></div>","66,71,82",1500,test,TRUE,82,500,congruent,red,red,,,,,-1,-1,poldrack-single-stim,189,400142,0.0-189.0,d00d4a58-8272-4b02-bfcd-6e8a14727a8a,,500,500,fixation,,<div class = centerbox><div class = fixation>+</div></div>,none,500,test,,,,,,,,,,,-1,-1,poldrack-categorize,190,402656,0.0-190.0,d00d4a58-8272-4b02-bfcd-6e8a14727a8a,,1500,250,stim,,"<div class = centerbox><div class = stroop-stim style = ""color:red"">RED</div></div>","66,71,82",1500,test,FALSE,82,500,congruent,red,red,,,,,-1,-1,poldrack-single-stim,191,403416,0.0-191.0,d00d4a58-8272-4b02-bfcd-6e8a14727a8a,,500,500,fixation,,<div class = centerbox><div class = fixation>+</div></div>,none,500,test,,,,,,,,,,,546,82,poldrack-categorize,192,405930,0.0-192.0,d00d4a58-8272-4b02-bfcd-6e8a14727a8a,,1500,250,stim,,"<div class = centerbox><div class = stroop-stim style = ""color:red"">GREEN</div></div>","66,71,82",1500,test,TRUE,82,500,incongruent,red,green,,,,,-1,-1,poldrack-single-stim,193,406690,0.0-193.0,d00d4a58-8272-4b02-bfcd-6e8a14727a8a,,500,500,fixation,,<div class = centerbox><div class = fixation>+</div></div>,none,500,test,,,,,,,,,,,736,71,poldrack-categorize,194,409203,0.0-194.0,d00d4a58-8272-4b02-bfcd-6e8a14727a8a,,1500,250,stim,,"<div class = centerbox><div class = stroop-stim style = ""color:green"">GREEN</div></div>","66,71,82",1500,test,TRUE,71,500,congruent,green,green,,,,,-1,-1,poldrack-single-stim,195,409964,0.0-195.0,d00d4a58-8272-4b02-bfcd-6e8a14727a8a,,500,500,fixation,,<div class = centerbox><div class = fixation>+</div></div>,none,500,test,,,,,,,,,,,646,82,poldrack-categorize,196,412474,0.0-196.0,d00d4a58-8272-4b02-bfcd-6e8a14727a8a,,1500,250,stim,,"<div class = centerbox><div class = stroop-stim style = ""color:red"">BLUE</div></div>","66,71,82",1500,test,TRUE,82,500,incongruent,red,blue,,,,,-1,-1,poldrack-single-stim,197,413232,0.0-197.0,d00d4a58-8272-4b02-bfcd-6e8a14727a8a,,500,500,fixation,,<div class = centerbox><div class = fixation>+</div></div>,none,500,test,,,,,,,,,,,650,71,poldrack-categorize,198,415745,0.0-198.0,d00d4a58-8272-4b02-bfcd-6e8a14727a8a,,1500,250,stim,,"<div class = centerbox><div class = stroop-stim style = ""color:green"">GREEN</div></div>","66,71,82",1500,test,TRUE,71,500,congruent,green,green,,,,,-1,-1,poldrack-single-stim,199,416506,0.0-199.0,d00d4a58-8272-4b02-bfcd-6e8a14727a8a,,500,500,fixation,,<div class = centerbox><div class = fixation>+</div></div>,none,500,test,,,,,,,,,,,552,82,poldrack-categorize,200,419019,0.0-200.0,d00d4a58-8272-4b02-bfcd-6e8a14727a8a,,1500,250,stim,,"<div class = centerbox><div class = stroop-stim style = ""color:red"">RED</div></div>","66,71,82",1500,test,TRUE,82,500,congruent,red,red,,,,,-1,-1,poldrack-single-stim,201,419780,0.0-201.0,d00d4a58-8272-4b02-bfcd-6e8a14727a8a,,500,500,fixation,,<div class = centerbox><div class = fixation>+</div></div>,none,500,test,,,,,,,,,,,663,82,poldrack-categorize,202,422290,0.0-202.0,d00d4a58-8272-4b02-bfcd-6e8a14727a8a,,1500,250,stim,,"<div class = centerbox><div class = stroop-stim style = ""color:red"">RED</div></div>","66,71,82",1500,test,TRUE,82,500,congruent,red,red,,,,,-1,-1,poldrack-single-stim,203,423048,0.0-203.0,d00d4a58-8272-4b02-bfcd-6e8a14727a8a,,500,500,fixation,,<div class = centerbox><div class = fixation>+</div></div>,none,500,test,,,,,,,,,,,586,82,poldrack-categorize,204,425561,0.0-204.0,d00d4a58-8272-4b02-bfcd-6e8a14727a8a,,1500,250,stim,,"<div class = centerbox><div class = stroop-stim style = ""color:red"">BLUE</div></div>","66,71,82",1500,test,TRUE,82,500,incongruent,red,blue,,,,,-1,-1,poldrack-single-stim,205,426321,0.0-205.0,d00d4a58-8272-4b02-bfcd-6e8a14727a8a,,500,500,fixation,,<div class = centerbox><div class = fixation>+</div></div>,none,500,test,,,,,,,,,,,449,71,poldrack-categorize,206,428835,0.0-206.0,d00d4a58-8272-4b02-bfcd-6e8a14727a8a,,1500,250,stim,,"<div class = centerbox><div class = stroop-stim style = ""color:green"">GREEN</div></div>","66,71,82",1500,test,TRUE,71,500,congruent,green,green,,,,,-1,-1,poldrack-single-stim,207,429595,0.0-207.0,d00d4a58-8272-4b02-bfcd-6e8a14727a8a,,500,500,fixation,,<div class = centerbox><div class = fixation>+</div></div>,none,500,test,,,,,,,,,,,645,66,poldrack-categorize,208,432109,0.0-208.0,d00d4a58-8272-4b02-bfcd-6e8a14727a8a,,1500,250,stim,,"<div class = centerbox><div class = stroop-stim style = ""color:blue"">RED</div></div>","66,71,82",1500,test,TRUE,66,500,incongruent,blue,red,,,,,-1,-1,poldrack-single-stim,209,432869,0.0-209.0,d00d4a58-8272-4b02-bfcd-6e8a14727a8a,,500,500,fixation,,<div class = centerbox><div class = fixation>+</div></div>,none,500,test,,,,,,,,,,,612,71,poldrack-categorize,210,435382,0.0-210.0,d00d4a58-8272-4b02-bfcd-6e8a14727a8a,,1500,250,stim,,"<div class = centerbox><div class = stroop-stim style = ""color:green"">GREEN</div></div>","66,71,82",1500,test,TRUE,71,500,congruent,green,green,,,,,-1,-1,poldrack-single-stim,211,436143,0.0-211.0,d00d4a58-8272-4b02-bfcd-6e8a14727a8a,,500,500,fixation,,<div class = centerbox><div class = fixation>+</div></div>,none,500,test,,,,,,,,,,,761,71,poldrack-categorize,212,438656,0.0-212.0,d00d4a58-8272-4b02-bfcd-6e8a14727a8a,,1500,250,stim,,"<div class = centerbox><div class = stroop-stim style = ""color:green"">BLUE</div></div>","66,71,82",1500,test,TRUE,71,500,incongruent,green,blue,,,,,-1,-1,poldrack-single-stim,213,439417,0.0-213.0,d00d4a58-8272-4b02-bfcd-6e8a14727a8a,,500,500,fixation,,<div class = centerbox><div class = fixation>+</div></div>,none,500,test,,,,,,,,,,,624,66,poldrack-categorize,214,441930,0.0-214.0,d00d4a58-8272-4b02-bfcd-6e8a14727a8a,,1500,250,stim,,"<div class = centerbox><div class = stroop-stim style = ""color:blue"">RED</div></div>","66,71,82",1500,test,TRUE,66,500,incongruent,blue,red,,,,,-1,-1,poldrack-single-stim,215,442690,0.0-215.0,d00d4a58-8272-4b02-bfcd-6e8a14727a8a,,500,500,fixation,,<div class = centerbox><div class = fixation>+</div></div>,none,500,test,,,,,,,,,,,502,66,poldrack-categorize,216,445204,0.0-216.0,d00d4a58-8272-4b02-bfcd-6e8a14727a8a,,1500,250,stim,,"<div class = centerbox><div class = stroop-stim style = ""color:blue"">BLUE</div></div>","66,71,82",1500,test,TRUE,66,500,congruent,blue,blue,,,,,-1,-1,poldrack-single-stim,217,445964,0.0-217.0,d00d4a58-8272-4b02-bfcd-6e8a14727a8a,,500,500,fixation,,<div class = centerbox><div class = fixation>+</div></div>,none,500,test,,,,,,,,,,,428,66,poldrack-categorize,218,448478,0.0-218.0,d00d4a58-8272-4b02-bfcd-6e8a14727a8a,,1500,250,stim,,"<div class = centerbox><div class = stroop-stim style = ""color:blue"">BLUE</div></div>","66,71,82",1500,test,TRUE,66,500,congruent,blue,blue,,,,,-1,-1,poldrack-single-stim,219,449236,0.0-219.0,d00d4a58-8272-4b02-bfcd-6e8a14727a8a,,500,500,fixation,,<div class = centerbox><div class = fixation>+</div></div>,none,500,test,,,,,,,,,,,431,66,poldrack-categorize,220,451746,0.0-220.0,d00d4a58-8272-4b02-bfcd-6e8a14727a8a,,1500,250,stim,,"<div class = centerbox><div class = stroop-stim style = ""color:blue"">BLUE</div></div>","66,71,82",1500,test,TRUE,66,500,congruent,blue,blue,,,,,-1,-1,poldrack-single-stim,221,452506,0.0-221.0,d00d4a58-8272-4b02-bfcd-6e8a14727a8a,,500,500,fixation,,<div class = centerbox><div class = fixation>+</div></div>,none,500,test,,,,,,,,,,,765,71,poldrack-categorize,222,455020,0.0-222.0,d00d4a58-8272-4b02-bfcd-6e8a14727a8a,,1500,250,stim,,"<div class = centerbox><div class = stroop-stim style = ""color:green"">RED</div></div>","66,71,82",1500,test,TRUE,71,500,incongruent,green,red,,,,,-1,-1,poldrack-single-stim,223,455780,0.0-223.0,d00d4a58-8272-4b02-bfcd-6e8a14727a8a,,500,500,fixation,,<div class = centerbox><div class = fixation>+</div></div>,none,500,test,,,,,,,,,,,667,66,poldrack-categorize,224,458293,0.0-224.0,d00d4a58-8272-4b02-bfcd-6e8a14727a8a,,1500,250,stim,,"<div class = centerbox><div class = stroop-stim style = ""color:blue"">BLUE</div></div>","66,71,82",1500,test,TRUE,66,500,congruent,blue,blue,,,,,-1,-1,poldrack-single-stim,225,459053,0.0-225.0,d00d4a58-8272-4b02-bfcd-6e8a14727a8a,,500,500,fixation,,<div class = centerbox><div class = fixation>+</div></div>,none,500,test,,,,,,,,,,,897,82,poldrack-categorize,226,461567,0.0-226.0,d00d4a58-8272-4b02-bfcd-6e8a14727a8a,,1500,250,stim,,"<div class = centerbox><div class = stroop-stim style = ""color:red"">BLUE</div></div>","66,71,82",1500,test,TRUE,82,500,incongruent,red,blue,,,,,-1,-1,poldrack-single-stim,227,462324,0.0-227.0,d00d4a58-8272-4b02-bfcd-6e8a14727a8a,,500,500,fixation,,<div class = centerbox><div class = fixation>+</div></div>,none,500,test,,,,,,,,,,,906,66,poldrack-categorize,228,464835,0.0-228.0,d00d4a58-8272-4b02-bfcd-6e8a14727a8a,,1500,250,stim,,"<div class = centerbox><div class = stroop-stim style = ""color:blue"">BLUE</div></div>","66,71,82",1500,test,TRUE,66,500,congruent,blue,blue,,,,,-1,-1,poldrack-single-stim,229,465596,0.0-229.0,d00d4a58-8272-4b02-bfcd-6e8a14727a8a,,500,500,fixation,,<div class = centerbox><div class = fixation>+</div></div>,none,500,test,,,,,,,,,,,716,82,poldrack-categorize,230,468109,0.0-230.0,d00d4a58-8272-4b02-bfcd-6e8a14727a8a,,1500,250,stim,,"<div class = centerbox><div class = stroop-stim style = ""color:red"">GREEN</div></div>","66,71,82",1500,test,TRUE,82,500,incongruent,red,green,,,,,-1,-1,poldrack-single-stim,231,468870,0.0-231.0,d00d4a58-8272-4b02-bfcd-6e8a14727a8a,,500,500,fixation,,<div class = centerbox><div class = fixation>+</div></div>,none,500,test,,,,,,,,,,,705,71,poldrack-categorize,232,471383,0.0-232.0,d00d4a58-8272-4b02-bfcd-6e8a14727a8a,,1500,250,stim,,"<div class = centerbox><div class = stroop-stim style = ""color:green"">BLUE</div></div>","66,71,82",1500,test,TRUE,71,500,incongruent,green,blue,,,,,-1,-1,poldrack-single-stim,233,472138,0.0-233.0,d00d4a58-8272-4b02-bfcd-6e8a14727a8a,,500,500,fixation,,<div class = centerbox><div class = fixation>+</div></div>,none,500,test,,,,,,,,,,,829,66,poldrack-categorize,234,474651,0.0-234.0,d00d4a58-8272-4b02-bfcd-6e8a14727a8a,,1500,250,stim,,"<div class = centerbox><div class = stroop-stim style = ""color:blue"">GREEN</div></div>","66,71,82",1500,test,TRUE,66,500,incongruent,blue,green,,,,,-1,-1,poldrack-single-stim,235,475411,0.0-235.0,d00d4a58-8272-4b02-bfcd-6e8a14727a8a,,500,500,fixation,,<div class = centerbox><div class = fixation>+</div></div>,none,500,test,,,,,,,,,,,634,71,poldrack-categorize,236,477925,0.0-236.0,d00d4a58-8272-4b02-bfcd-6e8a14727a8a,,1500,250,stim,,"<div class = centerbox><div class = stroop-stim style = ""color:green"">BLUE</div></div>","66,71,82",1500,test,TRUE,71,500,incongruent,green,blue,,,,,-1,-1,poldrack-single-stim,237,478685,0.0-237.0,d00d4a58-8272-4b02-bfcd-6e8a14727a8a,,500,500,fixation,,<div class = centerbox><div class = fixation>+</div></div>,none,500,test,,,,,,,,,,,831,66,poldrack-categorize,238,481198,0.0-238.0,d00d4a58-8272-4b02-bfcd-6e8a14727a8a,,1500,250,stim,,"<div class = centerbox><div class = stroop-stim style = ""color:blue"">GREEN</div></div>","66,71,82",1500,test,TRUE,66,500,incongruent,blue,green,,,,,-1,-1,poldrack-single-stim,239,481959,0.0-239.0,d00d4a58-8272-4b02-bfcd-6e8a14727a8a,,500,500,fixation,,<div class = centerbox><div class = fixation>+</div></div>,none,500,test,,,,,,,,,,,726,71,poldrack-categorize,240,484472,0.0-240.0,d00d4a58-8272-4b02-bfcd-6e8a14727a8a,,1500,250,stim,,"<div class = centerbox><div class = stroop-stim style = ""color:green"">GREEN</div></div>","66,71,82",1500,test,TRUE,71,500,congruent,green,green,,,,,-1,-1,poldrack-single-stim,241,485232,0.0-241.0,d00d4a58-8272-4b02-bfcd-6e8a14727a8a,,500,500,fixation,,<div class = centerbox><div class = fixation>+</div></div>,none,500,test,,,,,,,,,,,628,66,poldrack-categorize,242,487746,0.0-242.0,d00d4a58-8272-4b02-bfcd-6e8a14727a8a,,1500,250,stim,,"<div class = centerbox><div class = stroop-stim style = ""color:blue"">BLUE</div></div>","66,71,82",1500,test,TRUE,66,500,congruent,blue,blue,,,,,-1,-1,poldrack-single-stim,243,488507,0.0-243.0,d00d4a58-8272-4b02-bfcd-6e8a14727a8a,,500,500,fixation,,<div class = centerbox><div class = fixation>+</div></div>,none,500,test,,,,,,,,,,,715,71,poldrack-categorize,244,491017,0.0-244.0,d00d4a58-8272-4b02-bfcd-6e8a14727a8a,,1500,250,stim,,"<div class = centerbox><div class = stroop-stim style = ""color:green"">RED</div></div>","66,71,82",1500,test,TRUE,71,500,incongruent,green,red,,,,,66813,,survey-text,245,558087,0.0-246.0,d00d4a58-8272-4b02-bfcd-6e8a14727a8a,,,,post task questions,,,,,,,,,,,,"{""Q0"":""Distinguish between the colors themselves and the colors as a word"",""Q1"":""No""}",,,,2047,13,poldrack-text,246,561138,0.0-247.0,d00d4a58-8272-4b02-bfcd-6e8a14727a8a,<div class = centerbox><p class = center-block-text>Thanks for completing this task!</p><p class = center-block-text>Press <strong>enter</strong> to continue.</p></div>,2047,0,end,,,,,,,,,,,,,stroop,TRUE,,1713,13,poldrack-text,247,562890,0.0-248.0-0.0,d00d4a58-8272-4b02-bfcd-6e8a14727a8a,<div class = centerbox><p class = center-block-text>Done with instructions. Press <strong>enter</strong> to continue.</p></div>,1713,0,instruction,,,,,,,,,,,,,,,,