rt,key_press,trial_type,trial_index,time_elapsed,internal_node_id,subject,text,block_duration,timing_post_trial,trial_id,view_history,stimulus,possible_responses,stim_duration,exp_stage,stim_place,stim_id,condition,correct,correct_response,responses,exp_id,feedback_duration,stim_color,stim_word,credit_var31710,13,text,0,31712,0.0-0.0,1c4b4c62-14ce-4ece-a2be-6db147bd116a,,,,,,,,,,,,,,,,,,,,3080,13,poldrack-text,389,503380,0.0-388.0-0.0,1c4b4c62-14ce-4ece-a2be-6db147bd116a,<div class = centerbox><p class = center-block-text>Done with instructions. Press <strong>enter</strong> to continue.</p></div>,3080,0,instruction,,,,,,,,,,,,,,,,41425,,poldrack-instructions,390,544805,0.0-388.0-1.0,1c4b4c62-14ce-4ece-a2be-6db147bd116a,,,,instruction,"[{""page_index"":0,""viewing_time"":41425}]",,,,,,,,,,,,,,,4776,13,poldrack-text,391,550587,0.0-389.0,1c4b4c62-14ce-4ece-a2be-6db147bd116a,"<div class = centerbox><p class = block-text>We will start with a few practice trials. Remember, press the key corresponding to the <strong>ink</strong> color of the word: ""r"" for words colored red, ""b"" for words colored blue, and ""g"" for words colored green.</p><p class = block-text>Press <strong>enter</strong> to begin practice.</p></div>",4776,1000,practice_intro,,,,,,,,,,,,,,,,-1,-1,poldrack-single-stim,392,552094,0.0-390.0,1c4b4c62-14ce-4ece-a2be-6db147bd116a,,500,500,fixation,,<div class = centerbox><div class = fixation>+</div></div>,none,500,practice,,,,,,,,,,,-1,-1,poldrack-categorize,393,554605,0.0-391.0,1c4b4c62-14ce-4ece-a2be-6db147bd116a,,1500,250,stim,,"<div class = centerbox><div class = stroop-stim style = ""color:blue"">GREEN</div></div>","66,71,82",1500,practice,,,incongruent,FALSE,66,,,500,blue,green,-1,-1,poldrack-single-stim,394,555363,0.0-392.0,1c4b4c62-14ce-4ece-a2be-6db147bd116a,,500,500,fixation,,<div class = centerbox><div class = fixation>+</div></div>,none,500,practice,,,,,,,,,,,1359,82,poldrack-categorize,395,557876,0.0-393.0,1c4b4c62-14ce-4ece-a2be-6db147bd116a,,1500,250,stim,,"<div class = centerbox><div class = stroop-stim style = ""color:red"">GREEN</div></div>","66,71,82",1500,practice,,,incongruent,TRUE,82,,,500,red,green,-1,-1,poldrack-single-stim,396,558636,0.0-394.0,1c4b4c62-14ce-4ece-a2be-6db147bd116a,,500,500,fixation,,<div class = centerbox><div class = fixation>+</div></div>,none,500,practice,,,,,,,,,,,1175,71,poldrack-categorize,397,561146,0.0-395.0,1c4b4c62-14ce-4ece-a2be-6db147bd116a,,1500,250,stim,,"<div class = centerbox><div class = stroop-stim style = ""color:green"">BLUE</div></div>","66,71,82",1500,practice,,,incongruent,TRUE,71,,,500,green,blue,-1,-1,poldrack-single-stim,398,561905,0.0-396.0,1c4b4c62-14ce-4ece-a2be-6db147bd116a,,500,500,fixation,,<div class = centerbox><div class = fixation>+</div></div>,none,500,practice,,,,,,,,,,,688,66,poldrack-categorize,399,564418,0.0-397.0,1c4b4c62-14ce-4ece-a2be-6db147bd116a,,1500,250,stim,,"<div class = centerbox><div class = stroop-stim style = ""color:blue"">BLUE</div></div>","66,71,82",1500,practice,,,congruent,TRUE,66,,,500,blue,blue,-1,-1,poldrack-single-stim,400,565179,0.0-398.0,1c4b4c62-14ce-4ece-a2be-6db147bd116a,,500,500,fixation,,<div class = centerbox><div class = fixation>+</div></div>,none,500,practice,,,,,,,,,,,983,71,poldrack-categorize,401,567690,0.0-399.0,1c4b4c62-14ce-4ece-a2be-6db147bd116a,,1500,250,stim,,"<div class = centerbox><div class = stroop-stim style = ""color:blue"">GREEN</div></div>","66,71,82",1500,practice,,,incongruent,FALSE,66,,,500,blue,green,-1,-1,poldrack-single-stim,402,568447,0.0-400.0,1c4b4c62-14ce-4ece-a2be-6db147bd116a,,500,500,fixation,,<div class = centerbox><div class = fixation>+</div></div>,none,500,practice,,,,,,,,,,,962,66,poldrack-categorize,403,570960,0.0-401.0,1c4b4c62-14ce-4ece-a2be-6db147bd116a,,1500,250,stim,,"<div class = centerbox><div class = stroop-stim style = ""color:blue"">BLUE</div></div>","66,71,82",1500,practice,,,congruent,TRUE,66,,,500,blue,blue,-1,-1,poldrack-single-stim,404,571721,0.0-402.0,1c4b4c62-14ce-4ece-a2be-6db147bd116a,,500,500,fixation,,<div class = centerbox><div class = fixation>+</div></div>,none,500,practice,,,,,,,,,,,872,82,poldrack-categorize,405,574234,0.0-403.0,1c4b4c62-14ce-4ece-a2be-6db147bd116a,,1500,250,stim,,"<div class = centerbox><div class = stroop-stim style = ""color:red"">GREEN</div></div>","66,71,82",1500,practice,,,incongruent,TRUE,82,,,500,red,green,-1,-1,poldrack-single-stim,406,574991,0.0-404.0,1c4b4c62-14ce-4ece-a2be-6db147bd116a,,500,500,fixation,,<div class = centerbox><div class = fixation>+</div></div>,none,500,practice,,,,,,,,,,,594,71,poldrack-categorize,407,577502,0.0-405.0,1c4b4c62-14ce-4ece-a2be-6db147bd116a,,1500,250,stim,,"<div class = centerbox><div class = stroop-stim style = ""color:green"">GREEN</div></div>","66,71,82",1500,practice,,,congruent,TRUE,71,,,500,green,green,-1,-1,poldrack-single-stim,408,578263,0.0-406.0,1c4b4c62-14ce-4ece-a2be-6db147bd116a,,500,500,fixation,,<div class = centerbox><div class = fixation>+</div></div>,none,500,practice,,,,,,,,,,,555,71,poldrack-categorize,409,580776,0.0-407.0,1c4b4c62-14ce-4ece-a2be-6db147bd116a,,1500,250,stim,,"<div class = centerbox><div class = stroop-stim style = ""color:green"">GREEN</div></div>","66,71,82",1500,practice,,,congruent,TRUE,71,,,500,green,green,-1,-1,poldrack-single-stim,410,581537,0.0-408.0,1c4b4c62-14ce-4ece-a2be-6db147bd116a,,500,500,fixation,,<div class = centerbox><div class = fixation>+</div></div>,none,500,practice,,,,,,,,,,,536,71,poldrack-categorize,411,584050,0.0-409.0,1c4b4c62-14ce-4ece-a2be-6db147bd116a,,1500,250,stim,,"<div class = centerbox><div class = stroop-stim style = ""color:green"">GREEN</div></div>","66,71,82",1500,practice,,,congruent,TRUE,71,,,500,green,green,-1,-1,poldrack-single-stim,412,584811,0.0-410.0,1c4b4c62-14ce-4ece-a2be-6db147bd116a,,500,500,fixation,,<div class = centerbox><div class = fixation>+</div></div>,none,500,practice,,,,,,,,,,,758,82,poldrack-categorize,413,587324,0.0-411.0,1c4b4c62-14ce-4ece-a2be-6db147bd116a,,1500,250,stim,,"<div class = centerbox><div class = stroop-stim style = ""color:red"">BLUE</div></div>","66,71,82",1500,practice,,,incongruent,TRUE,82,,,500,red,blue,-1,-1,poldrack-single-stim,414,588085,0.0-412.0,1c4b4c62-14ce-4ece-a2be-6db147bd116a,,500,500,fixation,,<div class = centerbox><div class = fixation>+</div></div>,none,500,practice,,,,,,,,,,,1397,71,poldrack-categorize,415,590598,0.0-413.0,1c4b4c62-14ce-4ece-a2be-6db147bd116a,,1500,250,stim,,"<div class = centerbox><div class = stroop-stim style = ""color:green"">BLUE</div></div>","66,71,82",1500,practice,,,incongruent,TRUE,71,,,500,green,blue,-1,-1,poldrack-single-stim,416,591359,0.0-414.0,1c4b4c62-14ce-4ece-a2be-6db147bd116a,,500,500,fixation,,<div class = centerbox><div class = fixation>+</div></div>,none,500,practice,,,,,,,,,,,450,66,poldrack-categorize,417,593872,0.0-415.0,1c4b4c62-14ce-4ece-a2be-6db147bd116a,,1500,250,stim,,"<div class = centerbox><div class = stroop-stim style = ""color:blue"">BLUE</div></div>","66,71,82",1500,practice,,,congruent,TRUE,66,,,500,blue,blue,-1,-1,poldrack-single-stim,418,594633,0.0-416.0,1c4b4c62-14ce-4ece-a2be-6db147bd116a,,500,500,fixation,,<div class = centerbox><div class = fixation>+</div></div>,none,500,practice,,,,,,,,,,,776,66,poldrack-categorize,419,597146,0.0-417.0,1c4b4c62-14ce-4ece-a2be-6db147bd116a,,1500,250,stim,,"<div class = centerbox><div class = stroop-stim style = ""color:blue"">BLUE</div></div>","66,71,82",1500,practice,,,congruent,TRUE,66,,,500,blue,blue,-1,-1,poldrack-single-stim,420,597907,0.0-418.0,1c4b4c62-14ce-4ece-a2be-6db147bd116a,,500,500,fixation,,<div class = centerbox><div class = fixation>+</div></div>,none,500,practice,,,,,,,,,,,696,82,poldrack-categorize,421,600420,0.0-419.0,1c4b4c62-14ce-4ece-a2be-6db147bd116a,,1500,250,stim,,"<div class = centerbox><div class = stroop-stim style = ""color:blue"">RED</div></div>","66,71,82",1500,practice,,,incongruent,FALSE,66,,,500,blue,red,-1,-1,poldrack-single-stim,422,601181,0.0-420.0,1c4b4c62-14ce-4ece-a2be-6db147bd116a,,500,500,fixation,,<div class = centerbox><div class = fixation>+</div></div>,none,500,practice,,,,,,,,,,,685,71,poldrack-categorize,423,603694,0.0-421.0,1c4b4c62-14ce-4ece-a2be-6db147bd116a,,1500,250,stim,,"<div class = centerbox><div class = stroop-stim style = ""color:green"">RED</div></div>","66,71,82",1500,practice,,,incongruent,TRUE,71,,,500,green,red,-1,-1,poldrack-single-stim,424,604455,0.0-422.0,1c4b4c62-14ce-4ece-a2be-6db147bd116a,,500,500,fixation,,<div class = centerbox><div class = fixation>+</div></div>,none,500,practice,,,,,,,,,,,1026,66,poldrack-categorize,425,606968,0.0-423.0,1c4b4c62-14ce-4ece-a2be-6db147bd116a,,1500,250,stim,,"<div class = centerbox><div class = stroop-stim style = ""color:blue"">RED</div></div>","66,71,82",1500,practice,,,incongruent,TRUE,66,,,500,blue,red,-1,-1,poldrack-single-stim,426,607728,0.0-424.0,1c4b4c62-14ce-4ece-a2be-6db147bd116a,,500,500,fixation,,<div class = centerbox><div class = fixation>+</div></div>,none,500,practice,,,,,,,,,,,713,82,poldrack-categorize,427,610242,0.0-425.0,1c4b4c62-14ce-4ece-a2be-6db147bd116a,,1500,250,stim,,"<div class = centerbox><div class = stroop-stim style = ""color:red"">RED</div></div>","66,71,82",1500,practice,,,congruent,TRUE,82,,,500,red,red,-1,-1,poldrack-single-stim,428,611001,0.0-426.0,1c4b4c62-14ce-4ece-a2be-6db147bd116a,,500,500,fixation,,<div class = centerbox><div class = fixation>+</div></div>,none,500,practice,,,,,,,,,,,804,82,poldrack-categorize,429,613507,0.0-427.0,1c4b4c62-14ce-4ece-a2be-6db147bd116a,,1500,250,stim,,"<div class = centerbox><div class = stroop-stim style = ""color:red"">RED</div></div>","66,71,82",1500,practice,,,congruent,TRUE,82,,,500,red,red,-1,-1,poldrack-single-stim,430,614265,0.0-428.0,1c4b4c62-14ce-4ece-a2be-6db147bd116a,,500,500,fixation,,<div class = centerbox><div class = fixation>+</div></div>,none,500,practice,,,,,,,,,,,1296,82,poldrack-categorize,431,616779,0.0-429.0,1c4b4c62-14ce-4ece-a2be-6db147bd116a,,1500,250,stim,,"<div class = centerbox><div class = stroop-stim style = ""color:red"">BLUE</div></div>","66,71,82",1500,practice,,,incongruent,TRUE,82,,,500,red,blue,-1,-1,poldrack-single-stim,432,617539,0.0-430.0,1c4b4c62-14ce-4ece-a2be-6db147bd116a,,500,500,fixation,,<div class = centerbox><div class = fixation>+</div></div>,none,500,practice,,,,,,,,,,,910,82,poldrack-categorize,433,620053,0.0-431.0,1c4b4c62-14ce-4ece-a2be-6db147bd116a,,1500,250,stim,,"<div class = centerbox><div class = stroop-stim style = ""color:red"">RED</div></div>","66,71,82",1500,practice,,,congruent,TRUE,82,,,500,red,red,-1,-1,poldrack-single-stim,434,620813,0.0-432.0,1c4b4c62-14ce-4ece-a2be-6db147bd116a,,500,500,fixation,,<div class = centerbox><div class = fixation>+</div></div>,none,500,practice,,,,,,,,,,,612,82,poldrack-categorize,435,623327,0.0-433.0,1c4b4c62-14ce-4ece-a2be-6db147bd116a,,1500,250,stim,,"<div class = centerbox><div class = stroop-stim style = ""color:red"">RED</div></div>","66,71,82",1500,practice,,,congruent,TRUE,82,,,500,red,red,-1,-1,poldrack-single-stim,436,624082,0.0-434.0,1c4b4c62-14ce-4ece-a2be-6db147bd116a,,500,500,fixation,,<div class = centerbox><div class = fixation>+</div></div>,none,500,practice,,,,,,,,,,,616,71,poldrack-categorize,437,626595,0.0-435.0,1c4b4c62-14ce-4ece-a2be-6db147bd116a,,1500,250,stim,,"<div class = centerbox><div class = stroop-stim style = ""color:green"">GREEN</div></div>","66,71,82",1500,practice,,,congruent,TRUE,71,,,500,green,green,-1,-1,poldrack-single-stim,438,627355,0.0-436.0,1c4b4c62-14ce-4ece-a2be-6db147bd116a,,500,500,fixation,,<div class = centerbox><div class = fixation>+</div></div>,none,500,practice,,,,,,,,,,,950,71,poldrack-categorize,439,629869,0.0-437.0,1c4b4c62-14ce-4ece-a2be-6db147bd116a,,1500,250,stim,,"<div class = centerbox><div class = stroop-stim style = ""color:green"">RED</div></div>","66,71,82",1500,practice,,,incongruent,TRUE,71,,,500,green,red,6502,13,poldrack-text,440,636626,0.0-439.0,1c4b4c62-14ce-4ece-a2be-6db147bd116a,<div class = centerbox><p class = center-block-text>We will now start the test. Respond exactly like you did during practice.</p><p class = center-block-text>Press <strong>enter</strong> to begin the test.</p></div>,6502,1000,test_intro,,,,,,,,,,,,,,,,-1,-1,poldrack-single-stim,441,638135,0.0-440.0,1c4b4c62-14ce-4ece-a2be-6db147bd116a,,500,500,fixation,,<div class = centerbox><div class = fixation>+</div></div>,none,500,test,,,,,,,,,,,838,82,poldrack-categorize,442,640643,0.0-441.0,1c4b4c62-14ce-4ece-a2be-6db147bd116a,,1500,250,stim,,"<div class = centerbox><div class = stroop-stim style = ""color:red"">RED</div></div>","66,71,82",1500,test,,,congruent,TRUE,82,,,500,red,red,-1,-1,poldrack-single-stim,443,641403,0.0-442.0,1c4b4c62-14ce-4ece-a2be-6db147bd116a,,500,500,fixation,,<div class = centerbox><div class = fixation>+</div></div>,none,500,test,,,,,,,,,,,816,71,poldrack-categorize,444,643917,0.0-443.0,1c4b4c62-14ce-4ece-a2be-6db147bd116a,,1500,250,stim,,"<div class = centerbox><div class = stroop-stim style = ""color:green"">BLUE</div></div>","66,71,82",1500,test,,,incongruent,TRUE,71,,,500,green,blue,-1,-1,poldrack-single-stim,445,644675,0.0-444.0,1c4b4c62-14ce-4ece-a2be-6db147bd116a,,500,500,fixation,,<div class = centerbox><div class = fixation>+</div></div>,none,500,test,,,,,,,,,,,642,71,poldrack-categorize,446,647179,0.0-445.0,1c4b4c62-14ce-4ece-a2be-6db147bd116a,,1500,250,stim,,"<div class = centerbox><div class = stroop-stim style = ""color:green"">BLUE</div></div>","66,71,82",1500,test,,,incongruent,TRUE,71,,,500,green,blue,-1,-1,poldrack-single-stim,447,647939,0.0-446.0,1c4b4c62-14ce-4ece-a2be-6db147bd116a,,500,500,fixation,,<div class = centerbox><div class = fixation>+</div></div>,none,500,test,,,,,,,,,,,597,71,poldrack-categorize,448,650453,0.0-447.0,1c4b4c62-14ce-4ece-a2be-6db147bd116a,,1500,250,stim,,"<div class = centerbox><div class = stroop-stim style = ""color:green"">GREEN</div></div>","66,71,82",1500,test,,,congruent,TRUE,71,,,500,green,green,-1,-1,poldrack-single-stim,449,651214,0.0-448.0,1c4b4c62-14ce-4ece-a2be-6db147bd116a,,500,500,fixation,,<div class = centerbox><div class = fixation>+</div></div>,none,500,test,,,,,,,,,,,580,66,poldrack-categorize,450,653727,0.0-449.0,1c4b4c62-14ce-4ece-a2be-6db147bd116a,,1500,250,stim,,"<div class = centerbox><div class = stroop-stim style = ""color:blue"">BLUE</div></div>","66,71,82",1500,test,,,congruent,TRUE,66,,,500,blue,blue,-1,-1,poldrack-single-stim,451,654488,0.0-450.0,1c4b4c62-14ce-4ece-a2be-6db147bd116a,,500,500,fixation,,<div class = centerbox><div class = fixation>+</div></div>,none,500,test,,,,,,,,,,,1042,66,poldrack-categorize,452,657001,0.0-451.0,1c4b4c62-14ce-4ece-a2be-6db147bd116a,,1500,250,stim,,"<div class = centerbox><div class = stroop-stim style = ""color:blue"">GREEN</div></div>","66,71,82",1500,test,,,incongruent,TRUE,66,,,500,blue,green,-1,-1,poldrack-single-stim,453,657762,0.0-452.0,1c4b4c62-14ce-4ece-a2be-6db147bd116a,,500,500,fixation,,<div class = centerbox><div class = fixation>+</div></div>,none,500,test,,,,,,,,,,,703,71,poldrack-categorize,454,660271,0.0-453.0,1c4b4c62-14ce-4ece-a2be-6db147bd116a,,1500,250,stim,,"<div class = centerbox><div class = stroop-stim style = ""color:green"">GREEN</div></div>","66,71,82",1500,test,,,congruent,TRUE,71,,,500,green,green,-1,-1,poldrack-single-stim,455,661030,0.0-454.0,1c4b4c62-14ce-4ece-a2be-6db147bd116a,,500,500,fixation,,<div class = centerbox><div class = fixation>+</div></div>,none,500,test,,,,,,,,,,,747,82,poldrack-categorize,456,663543,0.0-455.0,1c4b4c62-14ce-4ece-a2be-6db147bd116a,,1500,250,stim,,"<div class = centerbox><div class = stroop-stim style = ""color:red"">BLUE</div></div>","66,71,82",1500,test,,,incongruent,TRUE,82,,,500,red,blue,-1,-1,poldrack-single-stim,457,664304,0.0-456.0,1c4b4c62-14ce-4ece-a2be-6db147bd116a,,500,500,fixation,,<div class = centerbox><div class = fixation>+</div></div>,none,500,test,,,,,,,,,,,641,71,poldrack-categorize,458,666817,0.0-457.0,1c4b4c62-14ce-4ece-a2be-6db147bd116a,,1500,250,stim,,"<div class = centerbox><div class = stroop-stim style = ""color:green"">GREEN</div></div>","66,71,82",1500,test,,,congruent,TRUE,71,,,500,green,green,-1,-1,poldrack-single-stim,459,667578,0.0-458.0,1c4b4c62-14ce-4ece-a2be-6db147bd116a,,500,500,fixation,,<div class = centerbox><div class = fixation>+</div></div>,none,500,test,,,,,,,,,,,520,71,poldrack-categorize,460,670091,0.0-459.0,1c4b4c62-14ce-4ece-a2be-6db147bd116a,,1500,250,stim,,"<div class = centerbox><div class = stroop-stim style = ""color:green"">GREEN</div></div>","66,71,82",1500,test,,,congruent,TRUE,71,,,500,green,green,-1,-1,poldrack-single-stim,461,670852,0.0-460.0,1c4b4c62-14ce-4ece-a2be-6db147bd116a,,500,500,fixation,,<div class = centerbox><div class = fixation>+</div></div>,none,500,test,,,,,,,,,,,692,82,poldrack-categorize,462,673365,0.0-461.0,1c4b4c62-14ce-4ece-a2be-6db147bd116a,,1500,250,stim,,"<div class = centerbox><div class = stroop-stim style = ""color:red"">GREEN</div></div>","66,71,82",1500,test,,,incongruent,TRUE,82,,,500,red,green,-1,-1,poldrack-single-stim,463,674126,0.0-462.0,1c4b4c62-14ce-4ece-a2be-6db147bd116a,,500,500,fixation,,<div class = centerbox><div class = fixation>+</div></div>,none,500,test,,,,,,,,,,,722,66,poldrack-categorize,464,676636,0.0-463.0,1c4b4c62-14ce-4ece-a2be-6db147bd116a,,1500,250,stim,,"<div class = centerbox><div class = stroop-stim style = ""color:blue"">GREEN</div></div>","66,71,82",1500,test,,,incongruent,TRUE,66,,,500,blue,green,-1,-1,poldrack-single-stim,465,677394,0.0-464.0,1c4b4c62-14ce-4ece-a2be-6db147bd116a,,500,500,fixation,,<div class = centerbox><div class = fixation>+</div></div>,none,500,test,,,,,,,,,,,898,66,poldrack-categorize,466,679902,0.0-465.0,1c4b4c62-14ce-4ece-a2be-6db147bd116a,,1500,250,stim,,"<div class = centerbox><div class = stroop-stim style = ""color:blue"">BLUE</div></div>","66,71,82",1500,test,,,congruent,TRUE,66,,,500,blue,blue,-1,-1,poldrack-single-stim,467,680662,0.0-466.0,1c4b4c62-14ce-4ece-a2be-6db147bd116a,,500,500,fixation,,<div class = centerbox><div class = fixation>+</div></div>,none,500,test,,,,,,,,,,,1058,82,poldrack-categorize,468,683176,0.0-467.0,1c4b4c62-14ce-4ece-a2be-6db147bd116a,,1500,250,stim,,"<div class = centerbox><div class = stroop-stim style = ""color:red"">GREEN</div></div>","66,71,82",1500,test,,,incongruent,TRUE,82,,,500,red,green,-1,-1,poldrack-single-stim,469,683936,0.0-468.0,1c4b4c62-14ce-4ece-a2be-6db147bd116a,,500,500,fixation,,<div class = centerbox><div class = fixation>+</div></div>,none,500,test,,,,,,,,,,,504,82,poldrack-categorize,470,686450,0.0-469.0,1c4b4c62-14ce-4ece-a2be-6db147bd116a,,1500,250,stim,,"<div class = centerbox><div class = stroop-stim style = ""color:red"">BLUE</div></div>","66,71,82",1500,test,,,incongruent,TRUE,82,,,500,red,blue,-1,-1,poldrack-single-stim,471,687210,0.0-470.0,1c4b4c62-14ce-4ece-a2be-6db147bd116a,,500,500,fixation,,<div class = centerbox><div class = fixation>+</div></div>,none,500,test,,,,,,,,,,,455,82,poldrack-categorize,472,689724,0.0-471.0,1c4b4c62-14ce-4ece-a2be-6db147bd116a,,1500,250,stim,,"<div class = centerbox><div class = stroop-stim style = ""color:red"">BLUE</div></div>","66,71,82",1500,test,,,incongruent,TRUE,82,,,500,red,blue,-1,-1,poldrack-single-stim,473,690484,0.0-472.0,1c4b4c62-14ce-4ece-a2be-6db147bd116a,,500,500,fixation,,<div class = centerbox><div class = fixation>+</div></div>,none,500,test,,,,,,,,,,,901,66,poldrack-categorize,474,692998,0.0-473.0,1c4b4c62-14ce-4ece-a2be-6db147bd116a,,1500,250,stim,,"<div class = centerbox><div class = stroop-stim style = ""color:blue"">BLUE</div></div>","66,71,82",1500,test,,,congruent,TRUE,66,,,500,blue,blue,-1,-1,poldrack-single-stim,475,693758,0.0-474.0,1c4b4c62-14ce-4ece-a2be-6db147bd116a,,500,500,fixation,,<div class = centerbox><div class = fixation>+</div></div>,none,500,test,,,,,,,,,,,778,82,poldrack-categorize,476,696268,0.0-475.0,1c4b4c62-14ce-4ece-a2be-6db147bd116a,,1500,250,stim,,"<div class = centerbox><div class = stroop-stim style = ""color:red"">BLUE</div></div>","66,71,82",1500,test,,,incongruent,TRUE,82,,,500,red,blue,-1,-1,poldrack-single-stim,477,697026,0.0-476.0,1c4b4c62-14ce-4ece-a2be-6db147bd116a,,500,500,fixation,,<div class = centerbox><div class = fixation>+</div></div>,none,500,test,,,,,,,,,,,686,82,poldrack-categorize,478,699540,0.0-477.0,1c4b4c62-14ce-4ece-a2be-6db147bd116a,,1500,250,stim,,"<div class = centerbox><div class = stroop-stim style = ""color:red"">RED</div></div>","66,71,82",1500,test,,,congruent,TRUE,82,,,500,red,red,-1,-1,poldrack-single-stim,479,700300,0.0-478.0,1c4b4c62-14ce-4ece-a2be-6db147bd116a,,500,500,fixation,,<div class = centerbox><div class = fixation>+</div></div>,none,500,test,,,,,,,,,,,532,82,poldrack-categorize,480,702814,0.0-479.0,1c4b4c62-14ce-4ece-a2be-6db147bd116a,,1500,250,stim,,"<div class = centerbox><div class = stroop-stim style = ""color:red"">RED</div></div>","66,71,82",1500,test,,,congruent,TRUE,82,,,500,red,red,-1,-1,poldrack-single-stim,481,703574,0.0-480.0,1c4b4c62-14ce-4ece-a2be-6db147bd116a,,500,500,fixation,,<div class = centerbox><div class = fixation>+</div></div>,none,500,test,,,,,,,,,,,684,66,poldrack-categorize,482,706084,0.0-481.0,1c4b4c62-14ce-4ece-a2be-6db147bd116a,,1500,250,stim,,"<div class = centerbox><div class = stroop-stim style = ""color:blue"">BLUE</div></div>","66,71,82",1500,test,,,congruent,TRUE,66,,,500,blue,blue,-1,-1,poldrack-single-stim,483,706841,0.0-482.0,1c4b4c62-14ce-4ece-a2be-6db147bd116a,,500,500,fixation,,<div class = centerbox><div class = fixation>+</div></div>,none,500,test,,,,,,,,,,,561,71,poldrack-categorize,484,709350,0.0-483.0,1c4b4c62-14ce-4ece-a2be-6db147bd116a,,1500,250,stim,,"<div class = centerbox><div class = stroop-stim style = ""color:green"">BLUE</div></div>","66,71,82",1500,test,,,incongruent,TRUE,71,,,500,green,blue,-1,-1,poldrack-single-stim,485,710105,0.0-484.0,1c4b4c62-14ce-4ece-a2be-6db147bd116a,,500,500,fixation,,<div class = centerbox><div class = fixation>+</div></div>,none,500,test,,,,,,,,,,,1223,71,poldrack-categorize,486,712618,0.0-485.0,1c4b4c62-14ce-4ece-a2be-6db147bd116a,,1500,250,stim,,"<div class = centerbox><div class = stroop-stim style = ""color:green"">RED</div></div>","66,71,82",1500,test,,,incongruent,TRUE,71,,,500,green,red,-1,-1,poldrack-single-stim,487,713379,0.0-486.0,1c4b4c62-14ce-4ece-a2be-6db147bd116a,,500,500,fixation,,<div class = centerbox><div class = fixation>+</div></div>,none,500,test,,,,,,,,,,,902,66,poldrack-categorize,488,715892,0.0-487.0,1c4b4c62-14ce-4ece-a2be-6db147bd116a,,1500,250,stim,,"<div class = centerbox><div class = stroop-stim style = ""color:blue"">RED</div></div>","66,71,82",1500,test,,,incongruent,TRUE,66,,,500,blue,red,-1,-1,poldrack-single-stim,489,716653,0.0-488.0,1c4b4c62-14ce-4ece-a2be-6db147bd116a,,500,500,fixation,,<div class = centerbox><div class = fixation>+</div></div>,none,500,test,,,,,,,,,,,899,71,poldrack-categorize,490,719169,0.0-489.0,1c4b4c62-14ce-4ece-a2be-6db147bd116a,,1500,250,stim,,"<div class = centerbox><div class = stroop-stim style = ""color:green"">RED</div></div>","66,71,82",1500,test,,,incongruent,TRUE,71,,,500,green,red,-1,-1,poldrack-single-stim,491,719927,0.0-490.0,1c4b4c62-14ce-4ece-a2be-6db147bd116a,,500,500,fixation,,<div class = centerbox><div class = fixation>+</div></div>,none,500,test,,,,,,,,,,,539,71,poldrack-categorize,492,722440,0.0-491.0,1c4b4c62-14ce-4ece-a2be-6db147bd116a,,1500,250,stim,,"<div class = centerbox><div class = stroop-stim style = ""color:green"">GREEN</div></div>","66,71,82",1500,test,,,congruent,TRUE,71,,,500,green,green,-1,-1,poldrack-single-stim,493,723201,0.0-492.0,1c4b4c62-14ce-4ece-a2be-6db147bd116a,,500,500,fixation,,<div class = centerbox><div class = fixation>+</div></div>,none,500,test,,,,,,,,,,,583,82,poldrack-categorize,494,725714,0.0-493.0,1c4b4c62-14ce-4ece-a2be-6db147bd116a,,1500,250,stim,,"<div class = centerbox><div class = stroop-stim style = ""color:red"">RED</div></div>","66,71,82",1500,test,,,congruent,TRUE,82,,,500,red,red,-1,-1,poldrack-single-stim,495,726475,0.0-494.0,1c4b4c62-14ce-4ece-a2be-6db147bd116a,,500,500,fixation,,<div class = centerbox><div class = fixation>+</div></div>,none,500,test,,,,,,,,,,,549,82,poldrack-categorize,496,728988,0.0-495.0,1c4b4c62-14ce-4ece-a2be-6db147bd116a,,1500,250,stim,,"<div class = centerbox><div class = stroop-stim style = ""color:red"">RED</div></div>","66,71,82",1500,test,,,congruent,TRUE,82,,,500,red,red,-1,-1,poldrack-single-stim,497,729749,0.0-496.0,1c4b4c62-14ce-4ece-a2be-6db147bd116a,,500,500,fixation,,<div class = centerbox><div class = fixation>+</div></div>,none,500,test,,,,,,,,,,,603,82,poldrack-categorize,498,732262,0.0-497.0,1c4b4c62-14ce-4ece-a2be-6db147bd116a,,1500,250,stim,,"<div class = centerbox><div class = stroop-stim style = ""color:red"">RED</div></div>","66,71,82",1500,test,,,congruent,TRUE,82,,,500,red,red,-1,-1,poldrack-single-stim,499,733023,0.0-498.0,1c4b4c62-14ce-4ece-a2be-6db147bd116a,,500,500,fixation,,<div class = centerbox><div class = fixation>+</div></div>,none,500,test,,,,,,,,,,,809,66,poldrack-categorize,500,735538,0.0-499.0,1c4b4c62-14ce-4ece-a2be-6db147bd116a,,1500,250,stim,,"<div class = centerbox><div class = stroop-stim style = ""color:blue"">GREEN</div></div>","66,71,82",1500,test,,,incongruent,TRUE,66,,,500,blue,green,-1,-1,poldrack-single-stim,501,736297,0.0-500.0,1c4b4c62-14ce-4ece-a2be-6db147bd116a,,500,500,fixation,,<div class = centerbox><div class = fixation>+</div></div>,none,500,test,,,,,,,,,,,607,71,poldrack-categorize,502,738810,0.0-501.0,1c4b4c62-14ce-4ece-a2be-6db147bd116a,,1500,250,stim,,"<div class = centerbox><div class = stroop-stim style = ""color:green"">GREEN</div></div>","66,71,82",1500,test,,,congruent,TRUE,71,,,500,green,green,-1,-1,poldrack-single-stim,503,739571,0.0-502.0,1c4b4c62-14ce-4ece-a2be-6db147bd116a,,500,500,fixation,,<div class = centerbox><div class = fixation>+</div></div>,none,500,test,,,,,,,,,,,1022,66,poldrack-categorize,504,742084,0.0-503.0,1c4b4c62-14ce-4ece-a2be-6db147bd116a,,1500,250,stim,,"<div class = centerbox><div class = stroop-stim style = ""color:blue"">RED</div></div>","66,71,82",1500,test,,,incongruent,TRUE,66,,,500,blue,red,-1,-1,poldrack-single-stim,505,742845,0.0-504.0,1c4b4c62-14ce-4ece-a2be-6db147bd116a,,500,500,fixation,,<div class = centerbox><div class = fixation>+</div></div>,none,500,test,,,,,,,,,,,636,71,poldrack-categorize,506,745358,0.0-505.0,1c4b4c62-14ce-4ece-a2be-6db147bd116a,,1500,250,stim,,"<div class = centerbox><div class = stroop-stim style = ""color:green"">GREEN</div></div>","66,71,82",1500,test,,,congruent,TRUE,71,,,500,green,green,-1,-1,poldrack-single-stim,507,746119,0.0-506.0,1c4b4c62-14ce-4ece-a2be-6db147bd116a,,500,500,fixation,,<div class = centerbox><div class = fixation>+</div></div>,none,500,test,,,,,,,,,,,1018,66,poldrack-categorize,508,748632,0.0-507.0,1c4b4c62-14ce-4ece-a2be-6db147bd116a,,1500,250,stim,,"<div class = centerbox><div class = stroop-stim style = ""color:blue"">RED</div></div>","66,71,82",1500,test,,,incongruent,TRUE,66,,,500,blue,red,-1,-1,poldrack-single-stim,509,749393,0.0-508.0,1c4b4c62-14ce-4ece-a2be-6db147bd116a,,500,500,fixation,,<div class = centerbox><div class = fixation>+</div></div>,none,500,test,,,,,,,,,,,943,66,poldrack-categorize,510,751905,0.0-509.0,1c4b4c62-14ce-4ece-a2be-6db147bd116a,,1500,250,stim,,"<div class = centerbox><div class = stroop-stim style = ""color:blue"">GREEN</div></div>","66,71,82",1500,test,,,incongruent,TRUE,66,,,500,blue,green,-1,-1,poldrack-single-stim,511,752661,0.0-510.0,1c4b4c62-14ce-4ece-a2be-6db147bd116a,,500,500,fixation,,<div class = centerbox><div class = fixation>+</div></div>,none,500,test,,,,,,,,,,,923,66,poldrack-categorize,512,755174,0.0-511.0,1c4b4c62-14ce-4ece-a2be-6db147bd116a,,1500,250,stim,,"<div class = centerbox><div class = stroop-stim style = ""color:blue"">RED</div></div>","66,71,82",1500,test,,,incongruent,TRUE,66,,,500,blue,red,-1,-1,poldrack-single-stim,513,755935,0.0-512.0,1c4b4c62-14ce-4ece-a2be-6db147bd116a,,500,500,fixation,,<div class = centerbox><div class = fixation>+</div></div>,none,500,test,,,,,,,,,,,882,71,poldrack-categorize,514,758448,0.0-513.0,1c4b4c62-14ce-4ece-a2be-6db147bd116a,,1500,250,stim,,"<div class = centerbox><div class = stroop-stim style = ""color:green"">RED</div></div>","66,71,82",1500,test,,,incongruent,TRUE,71,,,500,green,red,-1,-1,poldrack-single-stim,515,759209,0.0-514.0,1c4b4c62-14ce-4ece-a2be-6db147bd116a,,500,500,fixation,,<div class = centerbox><div class = fixation>+</div></div>,none,500,test,,,,,,,,,,,735,82,poldrack-categorize,516,761722,0.0-515.0,1c4b4c62-14ce-4ece-a2be-6db147bd116a,,1500,250,stim,,"<div class = centerbox><div class = stroop-stim style = ""color:red"">GREEN</div></div>","66,71,82",1500,test,,,incongruent,TRUE,82,,,500,red,green,-1,-1,poldrack-single-stim,517,762483,0.0-516.0,1c4b4c62-14ce-4ece-a2be-6db147bd116a,,500,500,fixation,,<div class = centerbox><div class = fixation>+</div></div>,none,500,test,,,,,,,,,,,677,82,poldrack-categorize,518,764996,0.0-517.0,1c4b4c62-14ce-4ece-a2be-6db147bd116a,,1500,250,stim,,"<div class = centerbox><div class = stroop-stim style = ""color:red"">RED</div></div>","66,71,82",1500,test,,,congruent,TRUE,82,,,500,red,red,-1,-1,poldrack-single-stim,519,765753,0.0-518.0,1c4b4c62-14ce-4ece-a2be-6db147bd116a,,500,500,fixation,,<div class = centerbox><div class = fixation>+</div></div>,none,500,test,,,,,,,,,,,747,66,poldrack-categorize,520,768265,0.0-519.0,1c4b4c62-14ce-4ece-a2be-6db147bd116a,,1500,250,stim,,"<div class = centerbox><div class = stroop-stim style = ""color:green"">BLUE</div></div>","66,71,82",1500,test,,,incongruent,FALSE,71,,,500,green,blue,-1,-1,poldrack-single-stim,521,769025,0.0-520.0,1c4b4c62-14ce-4ece-a2be-6db147bd116a,,500,500,fixation,,<div class = centerbox><div class = fixation>+</div></div>,none,500,test,,,,,,,,,,,-1,-1,poldrack-categorize,522,771539,0.0-521.0,1c4b4c62-14ce-4ece-a2be-6db147bd116a,,1500,250,stim,,"<div class = centerbox><div class = stroop-stim style = ""color:red"">GREEN</div></div>","66,71,82",1500,test,,,incongruent,FALSE,82,,,500,red,green,-1,-1,poldrack-single-stim,523,772299,0.0-522.0,1c4b4c62-14ce-4ece-a2be-6db147bd116a,,500,500,fixation,,<div class = centerbox><div class = fixation>+</div></div>,none,500,test,,,,,,,,,,,1365,71,poldrack-categorize,524,774812,0.0-523.0,1c4b4c62-14ce-4ece-a2be-6db147bd116a,,1500,250,stim,,"<div class = centerbox><div class = stroop-stim style = ""color:blue"">GREEN</div></div>","66,71,82",1500,test,,,incongruent,FALSE,66,,,500,blue,green,-1,-1,poldrack-single-stim,525,775573,0.0-524.0,1c4b4c62-14ce-4ece-a2be-6db147bd116a,,500,500,fixation,,<div class = centerbox><div class = fixation>+</div></div>,none,500,test,,,,,,,,,,,676,82,poldrack-categorize,526,778087,0.0-525.0,1c4b4c62-14ce-4ece-a2be-6db147bd116a,,1500,250,stim,,"<div class = centerbox><div class = stroop-stim style = ""color:red"">RED</div></div>","66,71,82",1500,test,,,congruent,TRUE,82,,,500,red,red,-1,-1,poldrack-single-stim,527,778847,0.0-526.0,1c4b4c62-14ce-4ece-a2be-6db147bd116a,,500,500,fixation,,<div class = centerbox><div class = fixation>+</div></div>,none,500,test,,,,,,,,,,,769,71,poldrack-categorize,528,781361,0.0-527.0,1c4b4c62-14ce-4ece-a2be-6db147bd116a,,1500,250,stim,,"<div class = centerbox><div class = stroop-stim style = ""color:green"">RED</div></div>","66,71,82",1500,test,,,incongruent,TRUE,71,,,500,green,red,-1,-1,poldrack-single-stim,529,782115,0.0-528.0,1c4b4c62-14ce-4ece-a2be-6db147bd116a,,500,500,fixation,,<div class = centerbox><div class = fixation>+</div></div>,none,500,test,,,,,,,,,,,789,66,poldrack-categorize,530,784629,0.0-529.0,1c4b4c62-14ce-4ece-a2be-6db147bd116a,,1500,250,stim,,"<div class = centerbox><div class = stroop-stim style = ""color:blue"">GREEN</div></div>","66,71,82",1500,test,,,incongruent,TRUE,66,,,500,blue,green,-1,-1,poldrack-single-stim,531,785389,0.0-530.0,1c4b4c62-14ce-4ece-a2be-6db147bd116a,,500,500,fixation,,<div class = centerbox><div class = fixation>+</div></div>,none,500,test,,,,,,,,,,,620,71,poldrack-categorize,532,787897,0.0-531.0,1c4b4c62-14ce-4ece-a2be-6db147bd116a,,1500,250,stim,,"<div class = centerbox><div class = stroop-stim style = ""color:green"">GREEN</div></div>","66,71,82",1500,test,,,congruent,TRUE,71,,,500,green,green,-1,-1,poldrack-single-stim,533,788655,0.0-532.0,1c4b4c62-14ce-4ece-a2be-6db147bd116a,,500,500,fixation,,<div class = centerbox><div class = fixation>+</div></div>,none,500,test,,,,,,,,,,,764,66,poldrack-categorize,534,791165,0.0-533.0,1c4b4c62-14ce-4ece-a2be-6db147bd116a,,1500,250,stim,,"<div class = centerbox><div class = stroop-stim style = ""color:blue"">GREEN</div></div>","66,71,82",1500,test,,,incongruent,TRUE,66,,,500,blue,green,-1,-1,poldrack-single-stim,535,791922,0.0-534.0,1c4b4c62-14ce-4ece-a2be-6db147bd116a,,500,500,fixation,,<div class = centerbox><div class = fixation>+</div></div>,none,500,test,,,,,,,,,,,952,66,poldrack-categorize,536,794433,0.0-535.0,1c4b4c62-14ce-4ece-a2be-6db147bd116a,,1500,250,stim,,"<div class = centerbox><div class = stroop-stim style = ""color:blue"">GREEN</div></div>","66,71,82",1500,test,,,incongruent,TRUE,66,,,500,blue,green,-1,-1,poldrack-single-stim,537,795194,0.0-536.0,1c4b4c62-14ce-4ece-a2be-6db147bd116a,,500,500,fixation,,<div class = centerbox><div class = fixation>+</div></div>,none,500,test,,,,,,,,,,,790,66,poldrack-categorize,538,797707,0.0-537.0,1c4b4c62-14ce-4ece-a2be-6db147bd116a,,1500,250,stim,,"<div class = centerbox><div class = stroop-stim style = ""color:blue"">RED</div></div>","66,71,82",1500,test,,,incongruent,TRUE,66,,,500,blue,red,-1,-1,poldrack-single-stim,539,798466,0.0-538.0,1c4b4c62-14ce-4ece-a2be-6db147bd116a,,500,500,fixation,,<div class = centerbox><div class = fixation>+</div></div>,none,500,test,,,,,,,,,,,478,71,poldrack-categorize,540,800981,0.0-539.0,1c4b4c62-14ce-4ece-a2be-6db147bd116a,,1500,250,stim,,"<div class = centerbox><div class = stroop-stim style = ""color:green"">GREEN</div></div>","66,71,82",1500,test,,,congruent,TRUE,71,,,500,green,green,-1,-1,poldrack-single-stim,541,801742,0.0-540.0,1c4b4c62-14ce-4ece-a2be-6db147bd116a,,500,500,fixation,,<div class = centerbox><div class = fixation>+</div></div>,none,500,test,,,,,,,,,,,819,66,poldrack-categorize,542,804255,0.0-541.0,1c4b4c62-14ce-4ece-a2be-6db147bd116a,,1500,250,stim,,"<div class = centerbox><div class = stroop-stim style = ""color:blue"">RED</div></div>","66,71,82",1500,test,,,incongruent,TRUE,66,,,500,blue,red,-1,-1,poldrack-single-stim,543,805016,0.0-542.0,1c4b4c62-14ce-4ece-a2be-6db147bd116a,,500,500,fixation,,<div class = centerbox><div class = fixation>+</div></div>,none,500,test,,,,,,,,,,,504,82,poldrack-categorize,544,807530,0.0-543.0,1c4b4c62-14ce-4ece-a2be-6db147bd116a,,1500,250,stim,,"<div class = centerbox><div class = stroop-stim style = ""color:red"">RED</div></div>","66,71,82",1500,test,,,congruent,TRUE,82,,,500,red,red,-1,-1,poldrack-single-stim,545,808290,0.0-544.0,1c4b4c62-14ce-4ece-a2be-6db147bd116a,,500,500,fixation,,<div class = centerbox><div class = fixation>+</div></div>,none,500,test,,,,,,,,,,,430,82,poldrack-categorize,546,810803,0.0-545.0,1c4b4c62-14ce-4ece-a2be-6db147bd116a,,1500,250,stim,,"<div class = centerbox><div class = stroop-stim style = ""color:red"">BLUE</div></div>","66,71,82",1500,test,,,incongruent,TRUE,82,,,500,red,blue,-1,-1,poldrack-single-stim,547,811558,0.0-546.0,1c4b4c62-14ce-4ece-a2be-6db147bd116a,,500,500,fixation,,<div class = centerbox><div class = fixation>+</div></div>,none,500,test,,,,,,,,,,,594,82,poldrack-categorize,548,814072,0.0-547.0,1c4b4c62-14ce-4ece-a2be-6db147bd116a,,1500,250,stim,,"<div class = centerbox><div class = stroop-stim style = ""color:red"">GREEN</div></div>","66,71,82",1500,test,,,incongruent,TRUE,82,,,500,red,green,-1,-1,poldrack-single-stim,549,814832,0.0-548.0,1c4b4c62-14ce-4ece-a2be-6db147bd116a,,500,500,fixation,,<div class = centerbox><div class = fixation>+</div></div>,none,500,test,,,,,,,,,,,968,71,poldrack-categorize,550,817342,0.0-549.0,1c4b4c62-14ce-4ece-a2be-6db147bd116a,,1500,250,stim,,"<div class = centerbox><div class = stroop-stim style = ""color:green"">RED</div></div>","66,71,82",1500,test,,,incongruent,TRUE,71,,,500,green,red,-1,-1,poldrack-single-stim,551,818100,0.0-550.0,1c4b4c62-14ce-4ece-a2be-6db147bd116a,,500,500,fixation,,<div class = centerbox><div class = fixation>+</div></div>,none,500,test,,,,,,,,,,,931,66,poldrack-categorize,552,820614,0.0-551.0,1c4b4c62-14ce-4ece-a2be-6db147bd116a,,1500,250,stim,,"<div class = centerbox><div class = stroop-stim style = ""color:blue"">BLUE</div></div>","66,71,82",1500,test,,,congruent,TRUE,66,,,500,blue,blue,-1,-1,poldrack-single-stim,553,821374,0.0-552.0,1c4b4c62-14ce-4ece-a2be-6db147bd116a,,500,500,fixation,,<div class = centerbox><div class = fixation>+</div></div>,none,500,test,,,,,,,,,,,596,71,poldrack-categorize,554,823882,0.0-553.0,1c4b4c62-14ce-4ece-a2be-6db147bd116a,,1500,250,stim,,"<div class = centerbox><div class = stroop-stim style = ""color:green"">BLUE</div></div>","66,71,82",1500,test,,,incongruent,TRUE,71,,,500,green,blue,-1,-1,poldrack-single-stim,555,824642,0.0-554.0,1c4b4c62-14ce-4ece-a2be-6db147bd116a,,500,500,fixation,,<div class = centerbox><div class = fixation>+</div></div>,none,500,test,,,,,,,,,,,583,66,poldrack-categorize,556,827156,0.0-555.0,1c4b4c62-14ce-4ece-a2be-6db147bd116a,,1500,250,stim,,"<div class = centerbox><div class = stroop-stim style = ""color:blue"">BLUE</div></div>","66,71,82",1500,test,,,congruent,TRUE,66,,,500,blue,blue,-1,-1,poldrack-single-stim,557,827916,0.0-556.0,1c4b4c62-14ce-4ece-a2be-6db147bd116a,,500,500,fixation,,<div class = centerbox><div class = fixation>+</div></div>,none,500,test,,,,,,,,,,,620,82,poldrack-categorize,558,830424,0.0-557.0,1c4b4c62-14ce-4ece-a2be-6db147bd116a,,1500,250,stim,,"<div class = centerbox><div class = stroop-stim style = ""color:red"">RED</div></div>","66,71,82",1500,test,,,congruent,TRUE,82,,,500,red,red,-1,-1,poldrack-single-stim,559,831185,0.0-558.0,1c4b4c62-14ce-4ece-a2be-6db147bd116a,,500,500,fixation,,<div class = centerbox><div class = fixation>+</div></div>,none,500,test,,,,,,,,,,,416,82,poldrack-categorize,560,833698,0.0-559.0,1c4b4c62-14ce-4ece-a2be-6db147bd116a,,1500,250,stim,,"<div class = centerbox><div class = stroop-stim style = ""color:red"">RED</div></div>","66,71,82",1500,test,,,congruent,TRUE,82,,,500,red,red,-1,-1,poldrack-single-stim,561,834459,0.0-560.0,1c4b4c62-14ce-4ece-a2be-6db147bd116a,,500,500,fixation,,<div class = centerbox><div class = fixation>+</div></div>,none,500,test,,,,,,,,,,,845,71,poldrack-categorize,562,836972,0.0-561.0,1c4b4c62-14ce-4ece-a2be-6db147bd116a,,1500,250,stim,,"<div class = centerbox><div class = stroop-stim style = ""color:green"">RED</div></div>","66,71,82",1500,test,,,incongruent,TRUE,71,,,500,green,red,-1,-1,poldrack-single-stim,563,837733,0.0-562.0,1c4b4c62-14ce-4ece-a2be-6db147bd116a,,500,500,fixation,,<div class = centerbox><div class = fixation>+</div></div>,none,500,test,,,,,,,,,,,860,82,poldrack-categorize,564,840246,0.0-563.0,1c4b4c62-14ce-4ece-a2be-6db147bd116a,,1500,250,stim,,"<div class = centerbox><div class = stroop-stim style = ""color:red"">GREEN</div></div>","66,71,82",1500,test,,,incongruent,TRUE,82,,,500,red,green,-1,-1,poldrack-single-stim,565,841007,0.0-564.0,1c4b4c62-14ce-4ece-a2be-6db147bd116a,,500,500,fixation,,<div class = centerbox><div class = fixation>+</div></div>,none,500,test,,,,,,,,,,,761,82,poldrack-categorize,566,843520,0.0-565.0,1c4b4c62-14ce-4ece-a2be-6db147bd116a,,1500,250,stim,,"<div class = centerbox><div class = stroop-stim style = ""color:red"">BLUE</div></div>","66,71,82",1500,test,,,incongruent,TRUE,82,,,500,red,blue,-1,-1,poldrack-single-stim,567,844281,0.0-566.0,1c4b4c62-14ce-4ece-a2be-6db147bd116a,,500,500,fixation,,<div class = centerbox><div class = fixation>+</div></div>,none,500,test,,,,,,,,,,,656,66,poldrack-categorize,568,846794,0.0-567.0,1c4b4c62-14ce-4ece-a2be-6db147bd116a,,1500,250,stim,,"<div class = centerbox><div class = stroop-stim style = ""color:blue"">BLUE</div></div>","66,71,82",1500,test,,,congruent,TRUE,66,,,500,blue,blue,-1,-1,poldrack-single-stim,569,847555,0.0-568.0,1c4b4c62-14ce-4ece-a2be-6db147bd116a,,500,500,fixation,,<div class = centerbox><div class = fixation>+</div></div>,none,500,test,,,,,,,,,,,645,82,poldrack-categorize,570,850068,0.0-569.0,1c4b4c62-14ce-4ece-a2be-6db147bd116a,,1500,250,stim,,"<div class = centerbox><div class = stroop-stim style = ""color:red"">GREEN</div></div>","66,71,82",1500,test,,,incongruent,TRUE,82,,,500,red,green,-1,-1,poldrack-single-stim,571,850828,0.0-570.0,1c4b4c62-14ce-4ece-a2be-6db147bd116a,,500,500,fixation,,<div class = centerbox><div class = fixation>+</div></div>,none,500,test,,,,,,,,,,,797,66,poldrack-categorize,572,853340,0.0-571.0,1c4b4c62-14ce-4ece-a2be-6db147bd116a,,1500,250,stim,,"<div class = centerbox><div class = stroop-stim style = ""color:blue"">BLUE</div></div>","66,71,82",1500,test,,,congruent,TRUE,66,,,500,blue,blue,-1,-1,poldrack-single-stim,573,854096,0.0-572.0,1c4b4c62-14ce-4ece-a2be-6db147bd116a,,500,500,fixation,,<div class = centerbox><div class = fixation>+</div></div>,none,500,test,,,,,,,,,,,582,82,poldrack-categorize,574,856610,0.0-573.0,1c4b4c62-14ce-4ece-a2be-6db147bd116a,,1500,250,stim,,"<div class = centerbox><div class = stroop-stim style = ""color:red"">BLUE</div></div>","66,71,82",1500,test,,,incongruent,TRUE,82,,,500,red,blue,-1,-1,poldrack-single-stim,575,857371,0.0-574.0,1c4b4c62-14ce-4ece-a2be-6db147bd116a,,500,500,fixation,,<div class = centerbox><div class = fixation>+</div></div>,none,500,test,,,,,,,,,,,910,66,poldrack-categorize,576,859884,0.0-575.0,1c4b4c62-14ce-4ece-a2be-6db147bd116a,,1500,250,stim,,"<div class = centerbox><div class = stroop-stim style = ""color:blue"">BLUE</div></div>","66,71,82",1500,test,,,congruent,TRUE,66,,,500,blue,blue,-1,-1,poldrack-single-stim,577,860645,0.0-576.0,1c4b4c62-14ce-4ece-a2be-6db147bd116a,,500,500,fixation,,<div class = centerbox><div class = fixation>+</div></div>,none,500,test,,,,,,,,,,,571,66,poldrack-categorize,578,863158,0.0-577.0,1c4b4c62-14ce-4ece-a2be-6db147bd116a,,1500,250,stim,,"<div class = centerbox><div class = stroop-stim style = ""color:blue"">BLUE</div></div>","66,71,82",1500,test,,,congruent,TRUE,66,,,500,blue,blue,-1,-1,poldrack-single-stim,579,863919,0.0-578.0,1c4b4c62-14ce-4ece-a2be-6db147bd116a,,500,500,fixation,,<div class = centerbox><div class = fixation>+</div></div>,none,500,test,,,,,,,,,,,442,66,poldrack-categorize,580,866432,0.0-579.0,1c4b4c62-14ce-4ece-a2be-6db147bd116a,,1500,250,stim,,"<div class = centerbox><div class = stroop-stim style = ""color:blue"">BLUE</div></div>","66,71,82",1500,test,,,congruent,TRUE,66,,,500,blue,blue,-1,-1,poldrack-single-stim,581,867187,0.0-580.0,1c4b4c62-14ce-4ece-a2be-6db147bd116a,,500,500,fixation,,<div class = centerbox><div class = fixation>+</div></div>,none,500,test,,,,,,,,,,,518,66,poldrack-categorize,582,869700,0.0-581.0,1c4b4c62-14ce-4ece-a2be-6db147bd116a,,1500,250,stim,,"<div class = centerbox><div class = stroop-stim style = ""color:blue"">BLUE</div></div>","66,71,82",1500,test,,,congruent,TRUE,66,,,500,blue,blue,-1,-1,poldrack-single-stim,583,870461,0.0-582.0,1c4b4c62-14ce-4ece-a2be-6db147bd116a,,500,500,fixation,,<div class = centerbox><div class = fixation>+</div></div>,none,500,test,,,,,,,,,,,635,82,poldrack-categorize,584,872974,0.0-583.0,1c4b4c62-14ce-4ece-a2be-6db147bd116a,,1500,250,stim,,"<div class = centerbox><div class = stroop-stim style = ""color:blue"">RED</div></div>","66,71,82",1500,test,,,incongruent,FALSE,66,,,500,blue,red,-1,-1,poldrack-single-stim,585,873735,0.0-584.0,1c4b4c62-14ce-4ece-a2be-6db147bd116a,,500,500,fixation,,<div class = centerbox><div class = fixation>+</div></div>,none,500,test,,,,,,,,,,,1144,71,poldrack-categorize,586,876248,0.0-585.0,1c4b4c62-14ce-4ece-a2be-6db147bd116a,,1500,250,stim,,"<div class = centerbox><div class = stroop-stim style = ""color:green"">BLUE</div></div>","66,71,82",1500,test,,,incongruent,TRUE,71,,,500,green,blue,-1,-1,poldrack-single-stim,587,877009,0.0-586.0,1c4b4c62-14ce-4ece-a2be-6db147bd116a,,500,500,fixation,,<div class = centerbox><div class = fixation>+</div></div>,none,500,test,,,,,,,,,,,806,71,poldrack-categorize,588,879518,0.0-587.0,1c4b4c62-14ce-4ece-a2be-6db147bd116a,,1500,250,stim,,"<div class = centerbox><div class = stroop-stim style = ""color:green"">RED</div></div>","66,71,82",1500,test,,,incongruent,TRUE,71,,,500,green,red,-1,-1,poldrack-single-stim,589,880277,0.0-588.0,1c4b4c62-14ce-4ece-a2be-6db147bd116a,,500,500,fixation,,<div class = centerbox><div class = fixation>+</div></div>,none,500,test,,,,,,,,,,,90,82,poldrack-categorize,590,882785,0.0-589.0,1c4b4c62-14ce-4ece-a2be-6db147bd116a,,1500,250,stim,,"<div class = centerbox><div class = stroop-stim style = ""color:red"">RED</div></div>","66,71,82",1500,test,,,congruent,TRUE,82,,,500,red,red,-1,-1,poldrack-single-stim,591,883545,0.0-590.0,1c4b4c62-14ce-4ece-a2be-6db147bd116a,,500,500,fixation,,<div class = centerbox><div class = fixation>+</div></div>,none,500,test,,,,,,,,,,,750,71,poldrack-categorize,592,886059,0.0-591.0,1c4b4c62-14ce-4ece-a2be-6db147bd116a,,1500,250,stim,,"<div class = centerbox><div class = stroop-stim style = ""color:green"">BLUE</div></div>","66,71,82",1500,test,,,incongruent,TRUE,71,,,500,green,blue,-1,-1,poldrack-single-stim,593,886819,0.0-592.0,1c4b4c62-14ce-4ece-a2be-6db147bd116a,,500,500,fixation,,<div class = centerbox><div class = fixation>+</div></div>,none,500,test,,,,,,,,,,,605,71,poldrack-categorize,594,889333,0.0-593.0,1c4b4c62-14ce-4ece-a2be-6db147bd116a,,1500,250,stim,,"<div class = centerbox><div class = stroop-stim style = ""color:green"">GREEN</div></div>","66,71,82",1500,test,,,congruent,TRUE,71,,,500,green,green,-1,-1,poldrack-single-stim,595,890093,0.0-594.0,1c4b4c62-14ce-4ece-a2be-6db147bd116a,,500,500,fixation,,<div class = centerbox><div class = fixation>+</div></div>,none,500,test,,,,,,,,,,,914,82,poldrack-categorize,596,892607,0.0-595.0,1c4b4c62-14ce-4ece-a2be-6db147bd116a,,1500,250,stim,,"<div class = centerbox><div class = stroop-stim style = ""color:red"">GREEN</div></div>","66,71,82",1500,test,,,incongruent,TRUE,82,,,500,red,green,-1,-1,poldrack-single-stim,597,893367,0.0-596.0,1c4b4c62-14ce-4ece-a2be-6db147bd116a,,500,500,fixation,,<div class = centerbox><div class = fixation>+</div></div>,none,500,test,,,,,,,,,,,384,82,poldrack-categorize,598,895881,0.0-597.0,1c4b4c62-14ce-4ece-a2be-6db147bd116a,,1500,250,stim,,"<div class = centerbox><div class = stroop-stim style = ""color:red"">RED</div></div>","66,71,82",1500,test,,,congruent,TRUE,82,,,500,red,red,-1,-1,poldrack-single-stim,599,896642,0.0-598.0,1c4b4c62-14ce-4ece-a2be-6db147bd116a,,500,500,fixation,,<div class = centerbox><div class = fixation>+</div></div>,none,500,test,,,,,,,,,,,598,71,poldrack-categorize,600,899155,0.0-599.0,1c4b4c62-14ce-4ece-a2be-6db147bd116a,,1500,250,stim,,"<div class = centerbox><div class = stroop-stim style = ""color:green"">GREEN</div></div>","66,71,82",1500,test,,,congruent,TRUE,71,,,500,green,green,-1,-1,poldrack-single-stim,601,899915,0.0-600.0,1c4b4c62-14ce-4ece-a2be-6db147bd116a,,500,500,fixation,,<div class = centerbox><div class = fixation>+</div></div>,none,500,test,,,,,,,,,,,692,71,poldrack-categorize,602,902429,0.0-601.0,1c4b4c62-14ce-4ece-a2be-6db147bd116a,,1500,250,stim,,"<div class = centerbox><div class = stroop-stim style = ""color:green"">BLUE</div></div>","66,71,82",1500,test,,,incongruent,TRUE,71,,,500,green,blue,-1,-1,poldrack-single-stim,603,903189,0.0-602.0,1c4b4c62-14ce-4ece-a2be-6db147bd116a,,500,500,fixation,,<div class = centerbox><div class = fixation>+</div></div>,none,500,test,,,,,,,,,,,754,82,poldrack-categorize,604,905703,0.0-603.0,1c4b4c62-14ce-4ece-a2be-6db147bd116a,,1500,250,stim,,"<div class = centerbox><div class = stroop-stim style = ""color:red"">BLUE</div></div>","66,71,82",1500,test,,,incongruent,TRUE,82,,,500,red,blue,-1,-1,poldrack-single-stim,605,906463,0.0-604.0,1c4b4c62-14ce-4ece-a2be-6db147bd116a,,500,500,fixation,,<div class = centerbox><div class = fixation>+</div></div>,none,500,test,,,,,,,,,,,1057,66,poldrack-categorize,606,908973,0.0-605.0,1c4b4c62-14ce-4ece-a2be-6db147bd116a,,1500,250,stim,,"<div class = centerbox><div class = stroop-stim style = ""color:blue"">BLUE</div></div>","66,71,82",1500,test,,,congruent,TRUE,66,,,500,blue,blue,-1,-1,poldrack-single-stim,607,909732,0.0-606.0,1c4b4c62-14ce-4ece-a2be-6db147bd116a,,500,500,fixation,,<div class = centerbox><div class = fixation>+</div></div>,none,500,test,,,,,,,,,,,636,71,poldrack-categorize,608,912245,0.0-607.0,1c4b4c62-14ce-4ece-a2be-6db147bd116a,,1500,250,stim,,"<div class = centerbox><div class = stroop-stim style = ""color:green"">GREEN</div></div>","66,71,82",1500,test,,,congruent,TRUE,71,,,500,green,green,-1,-1,poldrack-single-stim,609,913006,0.0-608.0,1c4b4c62-14ce-4ece-a2be-6db147bd116a,,500,500,fixation,,<div class = centerbox><div class = fixation>+</div></div>,none,500,test,,,,,,,,,,,525,71,poldrack-categorize,610,915513,0.0-609.0,1c4b4c62-14ce-4ece-a2be-6db147bd116a,,1500,250,stim,,"<div class = centerbox><div class = stroop-stim style = ""color:green"">GREEN</div></div>","66,71,82",1500,test,,,congruent,TRUE,71,,,500,green,green,-1,-1,poldrack-single-stim,611,916274,0.0-610.0,1c4b4c62-14ce-4ece-a2be-6db147bd116a,,500,500,fixation,,<div class = centerbox><div class = fixation>+</div></div>,none,500,test,,,,,,,,,,,630,71,poldrack-categorize,612,918787,0.0-611.0,1c4b4c62-14ce-4ece-a2be-6db147bd116a,,1500,250,stim,,"<div class = centerbox><div class = stroop-stim style = ""color:green"">RED</div></div>","66,71,82",1500,test,,,incongruent,TRUE,71,,,500,green,red,-1,-1,poldrack-single-stim,613,919548,0.0-612.0,1c4b4c62-14ce-4ece-a2be-6db147bd116a,,500,500,fixation,,<div class = centerbox><div class = fixation>+</div></div>,none,500,test,,,,,,,,,,,420,71,poldrack-categorize,614,922061,0.0-613.0,1c4b4c62-14ce-4ece-a2be-6db147bd116a,,1500,250,stim,,"<div class = centerbox><div class = stroop-stim style = ""color:green"">GREEN</div></div>","66,71,82",1500,test,,,congruent,TRUE,71,,,500,green,green,-1,-1,poldrack-single-stim,615,922822,0.0-614.0,1c4b4c62-14ce-4ece-a2be-6db147bd116a,,500,500,fixation,,<div class = centerbox><div class = fixation>+</div></div>,none,500,test,,,,,,,,,,,978,66,poldrack-categorize,616,925335,0.0-615.0,1c4b4c62-14ce-4ece-a2be-6db147bd116a,,1500,250,stim,,"<div class = centerbox><div class = stroop-stim style = ""color:blue"">RED</div></div>","66,71,82",1500,test,,,incongruent,TRUE,66,,,500,blue,red,-1,-1,poldrack-single-stim,617,926093,0.0-616.0,1c4b4c62-14ce-4ece-a2be-6db147bd116a,,500,500,fixation,,<div class = centerbox><div class = fixation>+</div></div>,none,500,test,,,,,,,,,,,773,71,poldrack-categorize,618,928603,0.0-617.0,1c4b4c62-14ce-4ece-a2be-6db147bd116a,,1500,250,stim,,"<div class = centerbox><div class = stroop-stim style = ""color:green"">GREEN</div></div>","66,71,82",1500,test,,,congruent,TRUE,71,,,500,green,green,-1,-1,poldrack-single-stim,619,929364,0.0-618.0,1c4b4c62-14ce-4ece-a2be-6db147bd116a,,500,500,fixation,,<div class = centerbox><div class = fixation>+</div></div>,none,500,test,,,,,,,,,,,1092,66,poldrack-categorize,620,931877,0.0-619.0,1c4b4c62-14ce-4ece-a2be-6db147bd116a,,1500,250,stim,,"<div class = centerbox><div class = stroop-stim style = ""color:blue"">BLUE</div></div>","66,71,82",1500,test,,,congruent,TRUE,66,,,500,blue,blue,-1,-1,poldrack-single-stim,621,932638,0.0-620.0,1c4b4c62-14ce-4ece-a2be-6db147bd116a,,500,500,fixation,,<div class = centerbox><div class = fixation>+</div></div>,none,500,test,,,,,,,,,,,890,82,poldrack-categorize,622,935151,0.0-621.0,1c4b4c62-14ce-4ece-a2be-6db147bd116a,,1500,250,stim,,"<div class = centerbox><div class = stroop-stim style = ""color:red"">RED</div></div>","66,71,82",1500,test,,,congruent,TRUE,82,,,500,red,red,-1,-1,poldrack-single-stim,623,935912,0.0-622.0,1c4b4c62-14ce-4ece-a2be-6db147bd116a,,500,500,fixation,,<div class = centerbox><div class = fixation>+</div></div>,none,500,test,,,,,,,,,,,1216,71,poldrack-categorize,624,938425,0.0-623.0,1c4b4c62-14ce-4ece-a2be-6db147bd116a,,1500,250,stim,,"<div class = centerbox><div class = stroop-stim style = ""color:blue"">BLUE</div></div>","66,71,82",1500,test,,,congruent,FALSE,66,,,500,blue,blue,-1,-1,poldrack-single-stim,625,939180,0.0-624.0,1c4b4c62-14ce-4ece-a2be-6db147bd116a,,500,500,fixation,,<div class = centerbox><div class = fixation>+</div></div>,none,500,test,,,,,,,,,,,699,71,poldrack-categorize,626,941693,0.0-625.0,1c4b4c62-14ce-4ece-a2be-6db147bd116a,,1500,250,stim,,"<div class = centerbox><div class = stroop-stim style = ""color:green"">GREEN</div></div>","66,71,82",1500,test,,,congruent,TRUE,71,,,500,green,green,-1,-1,poldrack-single-stim,627,942451,0.0-626.0,1c4b4c62-14ce-4ece-a2be-6db147bd116a,,500,500,fixation,,<div class = centerbox><div class = fixation>+</div></div>,none,500,test,,,,,,,,,,,511,82,poldrack-categorize,628,944962,0.0-627.0,1c4b4c62-14ce-4ece-a2be-6db147bd116a,,1500,250,stim,,"<div class = centerbox><div class = stroop-stim style = ""color:red"">RED</div></div>","66,71,82",1500,test,,,congruent,TRUE,82,,,500,red,red,-1,-1,poldrack-single-stim,629,945722,0.0-628.0,1c4b4c62-14ce-4ece-a2be-6db147bd116a,,500,500,fixation,,<div class = centerbox><div class = fixation>+</div></div>,none,500,test,,,,,,,,,,,965,66,poldrack-categorize,630,948236,0.0-629.0,1c4b4c62-14ce-4ece-a2be-6db147bd116a,,1500,250,stim,,"<div class = centerbox><div class = stroop-stim style = ""color:blue"">BLUE</div></div>","66,71,82",1500,test,,,congruent,TRUE,66,,,500,blue,blue,-1,-1,poldrack-single-stim,631,948996,0.0-630.0,1c4b4c62-14ce-4ece-a2be-6db147bd116a,,500,500,fixation,,<div class = centerbox><div class = fixation>+</div></div>,none,500,test,,,,,,,,,,,555,82,poldrack-categorize,632,951510,0.0-631.0,1c4b4c62-14ce-4ece-a2be-6db147bd116a,,1500,250,stim,,"<div class = centerbox><div class = stroop-stim style = ""color:red"">RED</div></div>","66,71,82",1500,test,,,congruent,TRUE,82,,,500,red,red,58350,,survey-text,633,1010117,0.0-633.0,1c4b4c62-14ce-4ece-a2be-6db147bd116a,,,,post task questions,,,,,,,,,,,"{""Q0"":""I was told to press r when the color of the word was red, g when the color of the word was green, and b when the color of the word was green."",""Q1"":""No.""}",,,,,2021,13,poldrack-text,634,1013144,0.0-634.0,1c4b4c62-14ce-4ece-a2be-6db147bd116a,<div class = centerbox><p class = center-block-text>Thanks for completing this task!</p><p class = center-block-text>Press <strong>enter</strong> to continue.</p></div>,2021,0,end,,,,,,,,,,,,stroop,,,,TRUE65592,13,text,635,1078776,0.0-635.0,1c4b4c62-14ce-4ece-a2be-6db147bd116a,,,,,,,,,,,,,,,,,,,,