"rt","key_press","trial_type","trial_index","time_elapsed","internal_node_id","subject","text","block_duration","timing_post_trial","trial_id","view_history","stimulus","possible_responses","stim_duration","exp_stage","correct","correct_response","feedback_duration","condition","stim_color","stim_word","responses","exp_id","credit_var"
"3032","13","text","0","3034","0.0-0.0","652d7223-2356-43e0-a173-c6d0400f0b6a","","","","","","","","","","","","","","","","","",""
"12403","13","poldrack-text","1","16441","0.0-1.0-0.0","652d7223-2356-43e0-a173-c6d0400f0b6a","<div class = centerbox><p class = center-block-text>Welcome to the experiment. This experiment will take about 8 minutes. Press <strong>enter</strong> to begin.</p></div>","12403","0","instruction","","","","","","","","","","","","","",""
"24033","","poldrack-instructions","2","40475","0.0-1.0-1.0","652d7223-2356-43e0-a173-c6d0400f0b6a","","","","instruction","[{""page_index"":0,""viewing_time"":24033}]","","","","","","","","","","","","",""
"3855","13","poldrack-text","3","45333","0.0-2.0","652d7223-2356-43e0-a173-c6d0400f0b6a","<div class = centerbox><p class = block-text>We will start with a few practice trials. Remember, press the key corresponding to the <strong>ink</strong> color of the word: ""r"" for words colored red, ""b"" for words colored blue, and ""g"" for words colored green.</p><p class = block-text>Press <strong>enter</strong> to begin practice.</p></div>","3855","1000","practice_intro","","","","","","","","","","","","","",""
"-1","-1","poldrack-single-stim","4","46842","0.0-3.0","652d7223-2356-43e0-a173-c6d0400f0b6a","","500","500","fixation","","<div class = centerbox><div class = fixation>+</div></div>","none","500","practice","","","","","","","","",""
"1334","66","poldrack-categorize","5","49351","0.0-4.0","652d7223-2356-43e0-a173-c6d0400f0b6a","","1500","250","stim","","<div class = centerbox><div class = stroop-stim style = ""color:blue"">RED</div></div>","66,71,82","1500","practice","true","66","500","incongruent","blue","red","","",""
"-1","-1","poldrack-single-stim","6","50109","0.0-5.0","652d7223-2356-43e0-a173-c6d0400f0b6a","","500","500","fixation","","<div class = centerbox><div class = fixation>+</div></div>","none","500","practice","","","","","","","","",""
"1019","66","poldrack-categorize","7","52617","0.0-6.0","652d7223-2356-43e0-a173-c6d0400f0b6a","","1500","250","stim","","<div class = centerbox><div class = stroop-stim style = ""color:blue"">BLUE</div></div>","66,71,82","1500","practice","true","66","500","congruent","blue","blue","","",""
"-1","-1","poldrack-single-stim","8","53376","0.0-7.0","652d7223-2356-43e0-a173-c6d0400f0b6a","","500","500","fixation","","<div class = centerbox><div class = fixation>+</div></div>","none","500","practice","","","","","","","","",""
"733","82","poldrack-categorize","9","55891","0.0-8.0","652d7223-2356-43e0-a173-c6d0400f0b6a","","1500","250","stim","","<div class = centerbox><div class = stroop-stim style = ""color:red"">BLUE</div></div>","66,71,82","1500","practice","true","82","500","incongruent","red","blue","","",""
"-1","-1","poldrack-single-stim","10","56651","0.0-9.0","652d7223-2356-43e0-a173-c6d0400f0b6a","","500","500","fixation","","<div class = centerbox><div class = fixation>+</div></div>","none","500","practice","","","","","","","","",""
"745","71","poldrack-categorize","11","59164","0.0-10.0","652d7223-2356-43e0-a173-c6d0400f0b6a","","1500","250","stim","","<div class = centerbox><div class = stroop-stim style = ""color:green"">GREEN</div></div>","66,71,82","1500","practice","true","71","500","congruent","green","green","","",""
"-1","-1","poldrack-single-stim","12","59923","0.0-11.0","652d7223-2356-43e0-a173-c6d0400f0b6a","","500","500","fixation","","<div class = centerbox><div class = fixation>+</div></div>","none","500","practice","","","","","","","","",""
"626","66","poldrack-categorize","13","62432","0.0-12.0","652d7223-2356-43e0-a173-c6d0400f0b6a","","1500","250","stim","","<div class = centerbox><div class = stroop-stim style = ""color:blue"">BLUE</div></div>","66,71,82","1500","practice","true","66","500","congruent","blue","blue","","",""
"-1","-1","poldrack-single-stim","14","63193","0.0-13.0","652d7223-2356-43e0-a173-c6d0400f0b6a","","500","500","fixation","","<div class = centerbox><div class = fixation>+</div></div>","none","500","practice","","","","","","","","",""
"873","82","poldrack-categorize","15","65706","0.0-14.0","652d7223-2356-43e0-a173-c6d0400f0b6a","","1500","250","stim","","<div class = centerbox><div class = stroop-stim style = ""color:red"">RED</div></div>","66,71,82","1500","practice","true","82","500","congruent","red","red","","",""
"-1","-1","poldrack-single-stim","16","66462","0.0-15.0","652d7223-2356-43e0-a173-c6d0400f0b6a","","500","500","fixation","","<div class = centerbox><div class = fixation>+</div></div>","none","500","practice","","","","","","","","",""
"1128","82","poldrack-categorize","17","68974","0.0-16.0","652d7223-2356-43e0-a173-c6d0400f0b6a","","1500","250","stim","","<div class = centerbox><div class = stroop-stim style = ""color:red"">RED</div></div>","66,71,82","1500","practice","true","82","500","congruent","red","red","","",""
"-1","-1","poldrack-single-stim","18","69732","0.0-17.0","652d7223-2356-43e0-a173-c6d0400f0b6a","","500","500","fixation","","<div class = centerbox><div class = fixation>+</div></div>","none","500","practice","","","","","","","","",""
"547","71","poldrack-categorize","19","72242","0.0-18.0","652d7223-2356-43e0-a173-c6d0400f0b6a","","1500","250","stim","","<div class = centerbox><div class = stroop-stim style = ""color:green"">RED</div></div>","66,71,82","1500","practice","true","71","500","incongruent","green","red","","",""
"-1","-1","poldrack-single-stim","20","73003","0.0-19.0","652d7223-2356-43e0-a173-c6d0400f0b6a","","500","500","fixation","","<div class = centerbox><div class = fixation>+</div></div>","none","500","practice","","","","","","","","",""
"390","66","poldrack-categorize","21","75516","0.0-20.0","652d7223-2356-43e0-a173-c6d0400f0b6a","","1500","250","stim","","<div class = centerbox><div class = stroop-stim style = ""color:blue"">BLUE</div></div>","66,71,82","1500","practice","true","66","500","congruent","blue","blue","","",""
"-1","-1","poldrack-single-stim","22","76276","0.0-21.0","652d7223-2356-43e0-a173-c6d0400f0b6a","","500","500","fixation","","<div class = centerbox><div class = fixation>+</div></div>","none","500","practice","","","","","","","","",""
"1324","71","poldrack-categorize","23","78790","0.0-22.0","652d7223-2356-43e0-a173-c6d0400f0b6a","","1500","250","stim","","<div class = centerbox><div class = stroop-stim style = ""color:blue"">GREEN</div></div>","66,71,82","1500","practice","false","66","500","incongruent","blue","green","","",""
"-1","-1","poldrack-single-stim","24","79547","0.0-23.0","652d7223-2356-43e0-a173-c6d0400f0b6a","","500","500","fixation","","<div class = centerbox><div class = fixation>+</div></div>","none","500","practice","","","","","","","","",""
"677","66","poldrack-categorize","25","82058","0.0-24.0","652d7223-2356-43e0-a173-c6d0400f0b6a","","1500","250","stim","","<div class = centerbox><div class = stroop-stim style = ""color:blue"">BLUE</div></div>","66,71,82","1500","practice","true","66","500","congruent","blue","blue","","",""
"-1","-1","poldrack-single-stim","26","82818","0.0-25.0","652d7223-2356-43e0-a173-c6d0400f0b6a","","500","500","fixation","","<div class = centerbox><div class = fixation>+</div></div>","none","500","practice","","","","","","","","",""
"869","82","poldrack-categorize","27","85331","0.0-26.0","652d7223-2356-43e0-a173-c6d0400f0b6a","","1500","250","stim","","<div class = centerbox><div class = stroop-stim style = ""color:red"">BLUE</div></div>","66,71,82","1500","practice","true","82","500","incongruent","red","blue","","",""
"-1","-1","poldrack-single-stim","28","86092","0.0-27.0","652d7223-2356-43e0-a173-c6d0400f0b6a","","500","500","fixation","","<div class = centerbox><div class = fixation>+</div></div>","none","500","practice","","","","","","","","",""
"733","82","poldrack-categorize","29","88605","0.0-28.0","652d7223-2356-43e0-a173-c6d0400f0b6a","","1500","250","stim","","<div class = centerbox><div class = stroop-stim style = ""color:red"">RED</div></div>","66,71,82","1500","practice","true","82","500","congruent","red","red","","",""
"-1","-1","poldrack-single-stim","30","89366","0.0-29.0","652d7223-2356-43e0-a173-c6d0400f0b6a","","500","500","fixation","","<div class = centerbox><div class = fixation>+</div></div>","none","500","practice","","","","","","","","",""
"834","71","poldrack-categorize","31","91879","0.0-30.0","652d7223-2356-43e0-a173-c6d0400f0b6a","","1500","250","stim","","<div class = centerbox><div class = stroop-stim style = ""color:green"">GREEN</div></div>","66,71,82","1500","practice","true","71","500","congruent","green","green","","",""
"-1","-1","poldrack-single-stim","32","92634","0.0-31.0","652d7223-2356-43e0-a173-c6d0400f0b6a","","500","500","fixation","","<div class = centerbox><div class = fixation>+</div></div>","none","500","practice","","","","","","","","",""
"739","71","poldrack-categorize","33","95147","0.0-32.0","652d7223-2356-43e0-a173-c6d0400f0b6a","","1500","250","stim","","<div class = centerbox><div class = stroop-stim style = ""color:green"">BLUE</div></div>","66,71,82","1500","practice","true","71","500","incongruent","green","blue","","",""
"-1","-1","poldrack-single-stim","34","95908","0.0-33.0","652d7223-2356-43e0-a173-c6d0400f0b6a","","500","500","fixation","","<div class = centerbox><div class = fixation>+</div></div>","none","500","practice","","","","","","","","",""
"1054","71","poldrack-categorize","35","98421","0.0-34.0","652d7223-2356-43e0-a173-c6d0400f0b6a","","1500","250","stim","","<div class = centerbox><div class = stroop-stim style = ""color:green"">GREEN</div></div>","66,71,82","1500","practice","true","71","500","congruent","green","green","","",""
"-1","-1","poldrack-single-stim","36","99181","0.0-35.0","652d7223-2356-43e0-a173-c6d0400f0b6a","","500","500","fixation","","<div class = centerbox><div class = fixation>+</div></div>","none","500","practice","","","","","","","","",""
"1234","82","poldrack-categorize","37","101695","0.0-36.0","652d7223-2356-43e0-a173-c6d0400f0b6a","","1500","250","stim","","<div class = centerbox><div class = stroop-stim style = ""color:red"">RED</div></div>","66,71,82","1500","practice","true","82","500","congruent","red","red","","",""
"-1","-1","poldrack-single-stim","38","102455","0.0-37.0","652d7223-2356-43e0-a173-c6d0400f0b6a","","500","500","fixation","","<div class = centerbox><div class = fixation>+</div></div>","none","500","practice","","","","","","","","",""
"885","82","poldrack-categorize","39","104969","0.0-38.0","652d7223-2356-43e0-a173-c6d0400f0b6a","","1500","250","stim","","<div class = centerbox><div class = stroop-stim style = ""color:red"">GREEN</div></div>","66,71,82","1500","practice","true","82","500","incongruent","red","green","","",""
"-1","-1","poldrack-single-stim","40","105729","0.0-39.0","652d7223-2356-43e0-a173-c6d0400f0b6a","","500","500","fixation","","<div class = centerbox><div class = fixation>+</div></div>","none","500","practice","","","","","","","","",""
"1031","82","poldrack-categorize","41","108242","0.0-40.0","652d7223-2356-43e0-a173-c6d0400f0b6a","","1500","250","stim","","<div class = centerbox><div class = stroop-stim style = ""color:red"">GREEN</div></div>","66,71,82","1500","practice","true","82","500","incongruent","red","green","","",""
"-1","-1","poldrack-single-stim","42","109003","0.0-41.0","652d7223-2356-43e0-a173-c6d0400f0b6a","","500","500","fixation","","<div class = centerbox><div class = fixation>+</div></div>","none","500","practice","","","","","","","","",""
"1144","71","poldrack-categorize","43","111516","0.0-42.0","652d7223-2356-43e0-a173-c6d0400f0b6a","","1500","250","stim","","<div class = centerbox><div class = stroop-stim style = ""color:green"">BLUE</div></div>","66,71,82","1500","practice","true","71","500","incongruent","green","blue","","",""
"-1","-1","poldrack-single-stim","44","112277","0.0-43.0","652d7223-2356-43e0-a173-c6d0400f0b6a","","500","500","fixation","","<div class = centerbox><div class = fixation>+</div></div>","none","500","practice","","","","","","","","",""
"772","71","poldrack-categorize","45","114790","0.0-44.0","652d7223-2356-43e0-a173-c6d0400f0b6a","","1500","250","stim","","<div class = centerbox><div class = stroop-stim style = ""color:green"">RED</div></div>","66,71,82","1500","practice","true","71","500","incongruent","green","red","","",""
"-1","-1","poldrack-single-stim","46","115550","0.0-45.0","652d7223-2356-43e0-a173-c6d0400f0b6a","","500","500","fixation","","<div class = centerbox><div class = fixation>+</div></div>","none","500","practice","","","","","","","","",""
"728","66","poldrack-categorize","47","118064","0.0-46.0","652d7223-2356-43e0-a173-c6d0400f0b6a","","1500","250","stim","","<div class = centerbox><div class = stroop-stim style = ""color:blue"">GREEN</div></div>","66,71,82","1500","practice","true","66","500","incongruent","blue","green","","",""
"-1","-1","poldrack-single-stim","48","118824","0.0-47.0","652d7223-2356-43e0-a173-c6d0400f0b6a","","500","500","fixation","","<div class = centerbox><div class = fixation>+</div></div>","none","500","practice","","","","","","","","",""
"705","71","poldrack-categorize","49","121338","0.0-48.0","652d7223-2356-43e0-a173-c6d0400f0b6a","","1500","250","stim","","<div class = centerbox><div class = stroop-stim style = ""color:green"">GREEN</div></div>","66,71,82","1500","practice","true","71","500","congruent","green","green","","",""
"-1","-1","poldrack-single-stim","50","122098","0.0-49.0","652d7223-2356-43e0-a173-c6d0400f0b6a","","500","500","fixation","","<div class = centerbox><div class = fixation>+</div></div>","none","500","practice","","","","","","","","",""
"728","66","poldrack-categorize","51","124611","0.0-50.0","652d7223-2356-43e0-a173-c6d0400f0b6a","","1500","250","stim","","<div class = centerbox><div class = stroop-stim style = ""color:blue"">RED</div></div>","66,71,82","1500","practice","true","66","500","incongruent","blue","red","","",""
"4066","13","poldrack-text","52","128933","0.0-52.0","652d7223-2356-43e0-a173-c6d0400f0b6a","<div class = centerbox><p class = center-block-text>We will now start the test. Respond exactly like you did during practice.</p><p class = center-block-text>Press <strong>enter</strong> to begin the test.</p></div>","4066","1000","test_intro","","","","","","","","","","","","","",""
"-1","-1","poldrack-single-stim","53","130439","0.0-53.0","652d7223-2356-43e0-a173-c6d0400f0b6a","","500","500","fixation","","<div class = centerbox><div class = fixation>+</div></div>","none","500","test","","","","","","","","",""
"-1","-1","poldrack-categorize","54","132944","0.0-54.0","652d7223-2356-43e0-a173-c6d0400f0b6a","","1500","250","stim","","<div class = centerbox><div class = stroop-stim style = ""color:blue"">BLUE</div></div>","66,71,82","1500","test","false","66","500","congruent","blue","blue","","",""
"-1","-1","poldrack-single-stim","55","133701","0.0-55.0","652d7223-2356-43e0-a173-c6d0400f0b6a","","500","500","fixation","","<div class = centerbox><div class = fixation>+</div></div>","none","500","test","","","","","","","","",""
"915","82","poldrack-categorize","56","136212","0.0-56.0","652d7223-2356-43e0-a173-c6d0400f0b6a","","1500","250","stim","","<div class = centerbox><div class = stroop-stim style = ""color:red"">BLUE</div></div>","66,71,82","1500","test","true","82","500","incongruent","red","blue","","",""
"-1","-1","poldrack-single-stim","57","136964","0.0-57.0","652d7223-2356-43e0-a173-c6d0400f0b6a","","500","500","fixation","","<div class = centerbox><div class = fixation>+</div></div>","none","500","test","","","","","","","","",""
"621","66","poldrack-categorize","58","139471","0.0-58.0","652d7223-2356-43e0-a173-c6d0400f0b6a","","1500","250","stim","","<div class = centerbox><div class = stroop-stim style = ""color:blue"">RED</div></div>","66,71,82","1500","test","true","66","500","incongruent","blue","red","","",""
"-1","-1","poldrack-single-stim","59","140232","0.0-59.0","652d7223-2356-43e0-a173-c6d0400f0b6a","","500","500","fixation","","<div class = centerbox><div class = fixation>+</div></div>","none","500","test","","","","","","","","",""
"560","71","poldrack-categorize","60","142745","0.0-60.0","652d7223-2356-43e0-a173-c6d0400f0b6a","","1500","250","stim","","<div class = centerbox><div class = stroop-stim style = ""color:green"">GREEN</div></div>","66,71,82","1500","test","true","71","500","congruent","green","green","","",""
"-1","-1","poldrack-single-stim","61","143502","0.0-61.0","652d7223-2356-43e0-a173-c6d0400f0b6a","","500","500","fixation","","<div class = centerbox><div class = fixation>+</div></div>","none","500","test","","","","","","","","",""
"680","71","poldrack-categorize","62","146012","0.0-62.0","652d7223-2356-43e0-a173-c6d0400f0b6a","","1500","250","stim","","<div class = centerbox><div class = stroop-stim style = ""color:green"">BLUE</div></div>","66,71,82","1500","test","true","71","500","incongruent","green","blue","","",""
"-1","-1","poldrack-single-stim","63","146774","0.0-63.0","652d7223-2356-43e0-a173-c6d0400f0b6a","","500","500","fixation","","<div class = centerbox><div class = fixation>+</div></div>","none","500","test","","","","","","","","",""
"884","66","poldrack-categorize","64","149281","0.0-64.0","652d7223-2356-43e0-a173-c6d0400f0b6a","","1500","250","stim","","<div class = centerbox><div class = stroop-stim style = ""color:blue"">BLUE</div></div>","66,71,82","1500","test","true","66","500","congruent","blue","blue","","",""
"-1","-1","poldrack-single-stim","65","150042","0.0-65.0","652d7223-2356-43e0-a173-c6d0400f0b6a","","500","500","fixation","","<div class = centerbox><div class = fixation>+</div></div>","none","500","test","","","","","","","","",""
"696","82","poldrack-categorize","66","152555","0.0-66.0","652d7223-2356-43e0-a173-c6d0400f0b6a","","1500","250","stim","","<div class = centerbox><div class = stroop-stim style = ""color:red"">BLUE</div></div>","66,71,82","1500","test","true","82","500","incongruent","red","blue","","",""
"-1","-1","poldrack-single-stim","67","153315","0.0-67.0","652d7223-2356-43e0-a173-c6d0400f0b6a","","500","500","fixation","","<div class = centerbox><div class = fixation>+</div></div>","none","500","test","","","","","","","","",""
"561","71","poldrack-categorize","68","155828","0.0-68.0","652d7223-2356-43e0-a173-c6d0400f0b6a","","1500","250","stim","","<div class = centerbox><div class = stroop-stim style = ""color:green"">GREEN</div></div>","66,71,82","1500","test","true","71","500","congruent","green","green","","",""
"-1","-1","poldrack-single-stim","69","156589","0.0-69.0","652d7223-2356-43e0-a173-c6d0400f0b6a","","500","500","fixation","","<div class = centerbox><div class = fixation>+</div></div>","none","500","test","","","","","","","","",""
"967","82","poldrack-categorize","70","159102","0.0-70.0","652d7223-2356-43e0-a173-c6d0400f0b6a","","1500","250","stim","","<div class = centerbox><div class = stroop-stim style = ""color:red"">GREEN</div></div>","66,71,82","1500","test","true","82","500","incongruent","red","green","","",""
"-1","-1","poldrack-single-stim","71","159858","0.0-71.0","652d7223-2356-43e0-a173-c6d0400f0b6a","","500","500","fixation","","<div class = centerbox><div class = fixation>+</div></div>","none","500","test","","","","","","","","",""
"624","82","poldrack-categorize","72","162370","0.0-72.0","652d7223-2356-43e0-a173-c6d0400f0b6a","","1500","250","stim","","<div class = centerbox><div class = stroop-stim style = ""color:red"">RED</div></div>","66,71,82","1500","test","true","82","500","congruent","red","red","","",""
"-1","-1","poldrack-single-stim","73","163127","0.0-73.0","652d7223-2356-43e0-a173-c6d0400f0b6a","","500","500","fixation","","<div class = centerbox><div class = fixation>+</div></div>","none","500","test","","","","","","","","",""
"932","71","poldrack-categorize","74","165638","0.0-74.0","652d7223-2356-43e0-a173-c6d0400f0b6a","","1500","250","stim","","<div class = centerbox><div class = stroop-stim style = ""color:green"">RED</div></div>","66,71,82","1500","test","true","71","500","incongruent","green","red","","",""
"-1","-1","poldrack-single-stim","75","166399","0.0-75.0","652d7223-2356-43e0-a173-c6d0400f0b6a","","500","500","fixation","","<div class = centerbox><div class = fixation>+</div></div>","none","500","test","","","","","","","","",""
"1213","82","poldrack-categorize","76","168912","0.0-76.0","652d7223-2356-43e0-a173-c6d0400f0b6a","","1500","250","stim","","<div class = centerbox><div class = stroop-stim style = ""color:red"">GREEN</div></div>","66,71,82","1500","test","true","82","500","incongruent","red","green","","",""
"-1","-1","poldrack-single-stim","77","169673","0.0-77.0","652d7223-2356-43e0-a173-c6d0400f0b6a","","500","500","fixation","","<div class = centerbox><div class = fixation>+</div></div>","none","500","test","","","","","","","","",""
"628","71","poldrack-categorize","78","172184","0.0-78.0","652d7223-2356-43e0-a173-c6d0400f0b6a","","1500","250","stim","","<div class = centerbox><div class = stroop-stim style = ""color:green"">GREEN</div></div>","66,71,82","1500","test","true","71","500","congruent","green","green","","",""
"-1","-1","poldrack-single-stim","79","172941","0.0-79.0","652d7223-2356-43e0-a173-c6d0400f0b6a","","500","500","fixation","","<div class = centerbox><div class = fixation>+</div></div>","none","500","test","","","","","","","","",""
"1254","82","poldrack-categorize","80","175454","0.0-80.0","652d7223-2356-43e0-a173-c6d0400f0b6a","","1500","250","stim","","<div class = centerbox><div class = stroop-stim style = ""color:red"">GREEN</div></div>","66,71,82","1500","test","true","82","500","incongruent","red","green","","",""
"-1","-1","poldrack-single-stim","81","176215","0.0-81.0","652d7223-2356-43e0-a173-c6d0400f0b6a","","500","500","fixation","","<div class = centerbox><div class = fixation>+</div></div>","none","500","test","","","","","","","","",""
"804","66","poldrack-categorize","82","178722","0.0-82.0","652d7223-2356-43e0-a173-c6d0400f0b6a","","1500","250","stim","","<div class = centerbox><div class = stroop-stim style = ""color:green"">BLUE</div></div>","66,71,82","1500","test","false","71","500","incongruent","green","blue","","",""
"-1","-1","poldrack-single-stim","83","179483","0.0-83.0","652d7223-2356-43e0-a173-c6d0400f0b6a","","500","500","fixation","","<div class = centerbox><div class = fixation>+</div></div>","none","500","test","","","","","","","","",""
"775","71","poldrack-categorize","84","181996","0.0-84.0","652d7223-2356-43e0-a173-c6d0400f0b6a","","1500","250","stim","","<div class = centerbox><div class = stroop-stim style = ""color:green"">GREEN</div></div>","66,71,82","1500","test","true","71","500","congruent","green","green","","",""
"-1","-1","poldrack-single-stim","85","182755","0.0-85.0","652d7223-2356-43e0-a173-c6d0400f0b6a","","500","500","fixation","","<div class = centerbox><div class = fixation>+</div></div>","none","500","test","","","","","","","","",""
"686","82","poldrack-categorize","86","185270","0.0-86.0","652d7223-2356-43e0-a173-c6d0400f0b6a","","1500","250","stim","","<div class = centerbox><div class = stroop-stim style = ""color:red"">BLUE</div></div>","66,71,82","1500","test","true","82","500","incongruent","red","blue","","",""
"-1","-1","poldrack-single-stim","87","186026","0.0-87.0","652d7223-2356-43e0-a173-c6d0400f0b6a","","500","500","fixation","","<div class = centerbox><div class = fixation>+</div></div>","none","500","test","","","","","","","","",""
"1175","82","poldrack-categorize","88","188532","0.0-88.0","652d7223-2356-43e0-a173-c6d0400f0b6a","","1500","250","stim","","<div class = centerbox><div class = stroop-stim style = ""color:red"">BLUE</div></div>","66,71,82","1500","test","true","82","500","incongruent","red","blue","","",""
"-1","-1","poldrack-single-stim","89","189292","0.0-89.0","652d7223-2356-43e0-a173-c6d0400f0b6a","","500","500","fixation","","<div class = centerbox><div class = fixation>+</div></div>","none","500","test","","","","","","","","",""
"607","66","poldrack-categorize","90","191806","0.0-90.0","652d7223-2356-43e0-a173-c6d0400f0b6a","","1500","250","stim","","<div class = centerbox><div class = stroop-stim style = ""color:blue"">BLUE</div></div>","66,71,82","1500","test","true","66","500","congruent","blue","blue","","",""
"-1","-1","poldrack-single-stim","91","192564","0.0-91.0","652d7223-2356-43e0-a173-c6d0400f0b6a","","500","500","fixation","","<div class = centerbox><div class = fixation>+</div></div>","none","500","test","","","","","","","","",""
"552","71","poldrack-categorize","92","195079","0.0-92.0","652d7223-2356-43e0-a173-c6d0400f0b6a","","1500","250","stim","","<div class = centerbox><div class = stroop-stim style = ""color:green"">GREEN</div></div>","66,71,82","1500","test","true","71","500","congruent","green","green","","",""
"-1","-1","poldrack-single-stim","93","195834","0.0-93.0","652d7223-2356-43e0-a173-c6d0400f0b6a","","500","500","fixation","","<div class = centerbox><div class = fixation>+</div></div>","none","500","test","","","","","","","","",""
"837","66","poldrack-categorize","94","198347","0.0-94.0","652d7223-2356-43e0-a173-c6d0400f0b6a","","1500","250","stim","","<div class = centerbox><div class = stroop-stim style = ""color:blue"">RED</div></div>","66,71,82","1500","test","true","66","500","incongruent","blue","red","","",""
"-1","-1","poldrack-single-stim","95","199108","0.0-95.0","652d7223-2356-43e0-a173-c6d0400f0b6a","","500","500","fixation","","<div class = centerbox><div class = fixation>+</div></div>","none","500","test","","","","","","","","",""
"513","82","poldrack-categorize","96","201621","0.0-96.0","652d7223-2356-43e0-a173-c6d0400f0b6a","","1500","250","stim","","<div class = centerbox><div class = stroop-stim style = ""color:red"">BLUE</div></div>","66,71,82","1500","test","true","82","500","incongruent","red","blue","","",""
"-1","-1","poldrack-single-stim","97","202382","0.0-97.0","652d7223-2356-43e0-a173-c6d0400f0b6a","","500","500","fixation","","<div class = centerbox><div class = fixation>+</div></div>","none","500","test","","","","","","","","",""
"513","71","poldrack-categorize","98","204895","0.0-98.0","652d7223-2356-43e0-a173-c6d0400f0b6a","","1500","250","stim","","<div class = centerbox><div class = stroop-stim style = ""color:green"">GREEN</div></div>","66,71,82","1500","test","true","71","500","congruent","green","green","","",""
"-1","-1","poldrack-single-stim","99","205656","0.0-99.0","652d7223-2356-43e0-a173-c6d0400f0b6a","","500","500","fixation","","<div class = centerbox><div class = fixation>+</div></div>","none","500","test","","","","","","","","",""
"940","82","poldrack-categorize","100","208169","0.0-100.0","652d7223-2356-43e0-a173-c6d0400f0b6a","","1500","250","stim","","<div class = centerbox><div class = stroop-stim style = ""color:red"">RED</div></div>","66,71,82","1500","test","true","82","500","congruent","red","red","","",""
"-1","-1","poldrack-single-stim","101","208929","0.0-101.0","652d7223-2356-43e0-a173-c6d0400f0b6a","","500","500","fixation","","<div class = centerbox><div class = fixation>+</div></div>","none","500","test","","","","","","","","",""
"1076","82","poldrack-categorize","102","211442","0.0-102.0","652d7223-2356-43e0-a173-c6d0400f0b6a","","1500","250","stim","","<div class = centerbox><div class = stroop-stim style = ""color:red"">GREEN</div></div>","66,71,82","1500","test","true","82","500","incongruent","red","green","","",""
"-1","-1","poldrack-single-stim","103","212203","0.0-103.0","652d7223-2356-43e0-a173-c6d0400f0b6a","","500","500","fixation","","<div class = centerbox><div class = fixation>+</div></div>","none","500","test","","","","","","","","",""
"1132","66","poldrack-categorize","104","214716","0.0-104.0","652d7223-2356-43e0-a173-c6d0400f0b6a","","1500","250","stim","","<div class = centerbox><div class = stroop-stim style = ""color:blue"">BLUE</div></div>","66,71,82","1500","test","true","66","500","congruent","blue","blue","","",""
"-1","-1","poldrack-single-stim","105","215477","0.0-105.0","652d7223-2356-43e0-a173-c6d0400f0b6a","","500","500","fixation","","<div class = centerbox><div class = fixation>+</div></div>","none","500","test","","","","","","","","",""
"873","71","poldrack-categorize","106","217990","0.0-106.0","652d7223-2356-43e0-a173-c6d0400f0b6a","","1500","250","stim","","<div class = centerbox><div class = stroop-stim style = ""color:green"">RED</div></div>","66,71,82","1500","test","true","71","500","incongruent","green","red","","",""
"-1","-1","poldrack-single-stim","107","218750","0.0-107.0","652d7223-2356-43e0-a173-c6d0400f0b6a","","500","500","fixation","","<div class = centerbox><div class = fixation>+</div></div>","none","500","test","","","","","","","","",""
"604","71","poldrack-categorize","108","221258","0.0-108.0","652d7223-2356-43e0-a173-c6d0400f0b6a","","1500","250","stim","","<div class = centerbox><div class = stroop-stim style = ""color:green"">RED</div></div>","66,71,82","1500","test","true","71","500","incongruent","green","red","","",""
"-1","-1","poldrack-single-stim","109","222019","0.0-109.0","652d7223-2356-43e0-a173-c6d0400f0b6a","","500","500","fixation","","<div class = centerbox><div class = fixation>+</div></div>","none","500","test","","","","","","","","",""
"598","66","poldrack-categorize","110","224532","0.0-110.0","652d7223-2356-43e0-a173-c6d0400f0b6a","","1500","250","stim","","<div class = centerbox><div class = stroop-stim style = ""color:blue"">BLUE</div></div>","66,71,82","1500","test","true","66","500","congruent","blue","blue","","",""
"-1","-1","poldrack-single-stim","111","225293","0.0-111.0","652d7223-2356-43e0-a173-c6d0400f0b6a","","500","500","fixation","","<div class = centerbox><div class = fixation>+</div></div>","none","500","test","","","","","","","","",""
"530","82","poldrack-categorize","112","227806","0.0-112.0","652d7223-2356-43e0-a173-c6d0400f0b6a","","1500","250","stim","","<div class = centerbox><div class = stroop-stim style = ""color:red"">RED</div></div>","66,71,82","1500","test","true","82","500","congruent","red","red","","",""
"-1","-1","poldrack-single-stim","113","228566","0.0-113.0","652d7223-2356-43e0-a173-c6d0400f0b6a","","500","500","fixation","","<div class = centerbox><div class = fixation>+</div></div>","none","500","test","","","","","","","","",""
"407","82","poldrack-categorize","114","231074","0.0-114.0","652d7223-2356-43e0-a173-c6d0400f0b6a","","1500","250","stim","","<div class = centerbox><div class = stroop-stim style = ""color:red"">RED</div></div>","66,71,82","1500","test","true","82","500","congruent","red","red","","",""
"-1","-1","poldrack-single-stim","115","231834","0.0-115.0","652d7223-2356-43e0-a173-c6d0400f0b6a","","500","500","fixation","","<div class = centerbox><div class = fixation>+</div></div>","none","500","test","","","","","","","","",""
"714","66","poldrack-categorize","116","234348","0.0-116.0","652d7223-2356-43e0-a173-c6d0400f0b6a","","1500","250","stim","","<div class = centerbox><div class = stroop-stim style = ""color:blue"">BLUE</div></div>","66,71,82","1500","test","true","66","500","congruent","blue","blue","","",""
"-1","-1","poldrack-single-stim","117","235108","0.0-117.0","652d7223-2356-43e0-a173-c6d0400f0b6a","","500","500","fixation","","<div class = centerbox><div class = fixation>+</div></div>","none","500","test","","","","","","","","",""
"593","71","poldrack-categorize","118","237621","0.0-118.0","652d7223-2356-43e0-a173-c6d0400f0b6a","","1500","250","stim","","<div class = centerbox><div class = stroop-stim style = ""color:green"">GREEN</div></div>","66,71,82","1500","test","true","71","500","congruent","green","green","","",""
"-1","-1","poldrack-single-stim","119","238382","0.0-119.0","652d7223-2356-43e0-a173-c6d0400f0b6a","","500","500","fixation","","<div class = centerbox><div class = fixation>+</div></div>","none","500","test","","","","","","","","",""
"851","66","poldrack-categorize","120","240895","0.0-120.0","652d7223-2356-43e0-a173-c6d0400f0b6a","","1500","250","stim","","<div class = centerbox><div class = stroop-stim style = ""color:blue"">GREEN</div></div>","66,71,82","1500","test","true","66","500","incongruent","blue","green","","",""
"-1","-1","poldrack-single-stim","121","241650","0.0-121.0","652d7223-2356-43e0-a173-c6d0400f0b6a","","500","500","fixation","","<div class = centerbox><div class = fixation>+</div></div>","none","500","test","","","","","","","","",""
"1046","82","poldrack-categorize","122","244163","0.0-122.0","652d7223-2356-43e0-a173-c6d0400f0b6a","","1500","250","stim","","<div class = centerbox><div class = stroop-stim style = ""color:red"">RED</div></div>","66,71,82","1500","test","true","82","500","congruent","red","red","","",""
"-1","-1","poldrack-single-stim","123","244924","0.0-123.0","652d7223-2356-43e0-a173-c6d0400f0b6a","","500","500","fixation","","<div class = centerbox><div class = fixation>+</div></div>","none","500","test","","","","","","","","",""
"543","66","poldrack-categorize","124","247431","0.0-124.0","652d7223-2356-43e0-a173-c6d0400f0b6a","","1500","250","stim","","<div class = centerbox><div class = stroop-stim style = ""color:blue"">BLUE</div></div>","66,71,82","1500","test","true","66","500","congruent","blue","blue","","",""
"-1","-1","poldrack-single-stim","125","248192","0.0-125.0","652d7223-2356-43e0-a173-c6d0400f0b6a","","500","500","fixation","","<div class = centerbox><div class = fixation>+</div></div>","none","500","test","","","","","","","","",""
"784","82","poldrack-categorize","126","250705","0.0-126.0","652d7223-2356-43e0-a173-c6d0400f0b6a","","1500","250","stim","","<div class = centerbox><div class = stroop-stim style = ""color:red"">BLUE</div></div>","66,71,82","1500","test","true","82","500","incongruent","red","blue","","",""
"-1","-1","poldrack-single-stim","127","251460","0.0-127.0","652d7223-2356-43e0-a173-c6d0400f0b6a","","500","500","fixation","","<div class = centerbox><div class = fixation>+</div></div>","none","500","test","","","","","","","","",""
"1170","82","poldrack-categorize","128","253973","0.0-128.0","652d7223-2356-43e0-a173-c6d0400f0b6a","","1500","250","stim","","<div class = centerbox><div class = stroop-stim style = ""color:red"">GREEN</div></div>","66,71,82","1500","test","true","82","500","incongruent","red","green","","",""
"-1","-1","poldrack-single-stim","129","254734","0.0-129.0","652d7223-2356-43e0-a173-c6d0400f0b6a","","500","500","fixation","","<div class = centerbox><div class = fixation>+</div></div>","none","500","test","","","","","","","","",""
"722","66","poldrack-categorize","130","257247","0.0-130.0","652d7223-2356-43e0-a173-c6d0400f0b6a","","1500","250","stim","","<div class = centerbox><div class = stroop-stim style = ""color:blue"">BLUE</div></div>","66,71,82","1500","test","true","66","500","congruent","blue","blue","","",""
"-1","-1","poldrack-single-stim","131","258008","0.0-131.0","652d7223-2356-43e0-a173-c6d0400f0b6a","","500","500","fixation","","<div class = centerbox><div class = fixation>+</div></div>","none","500","test","","","","","","","","",""
"914","66","poldrack-categorize","132","260521","0.0-132.0","652d7223-2356-43e0-a173-c6d0400f0b6a","","1500","250","stim","","<div class = centerbox><div class = stroop-stim style = ""color:blue"">GREEN</div></div>","66,71,82","1500","test","true","66","500","incongruent","blue","green","","",""
"-1","-1","poldrack-single-stim","133","261276","0.0-133.0","652d7223-2356-43e0-a173-c6d0400f0b6a","","500","500","fixation","","<div class = centerbox><div class = fixation>+</div></div>","none","500","test","","","","","","","","",""
"524","66","poldrack-categorize","134","263789","0.0-134.0","652d7223-2356-43e0-a173-c6d0400f0b6a","","1500","250","stim","","<div class = centerbox><div class = stroop-stim style = ""color:blue"">RED</div></div>","66,71,82","1500","test","true","66","500","incongruent","blue","red","","",""
"-1","-1","poldrack-single-stim","135","264549","0.0-135.0","652d7223-2356-43e0-a173-c6d0400f0b6a","","500","500","fixation","","<div class = centerbox><div class = fixation>+</div></div>","none","500","test","","","","","","","","",""
"514","66","poldrack-categorize","136","267062","0.0-136.0","652d7223-2356-43e0-a173-c6d0400f0b6a","","1500","250","stim","","<div class = centerbox><div class = stroop-stim style = ""color:blue"">GREEN</div></div>","66,71,82","1500","test","true","66","500","incongruent","blue","green","","",""
"-1","-1","poldrack-single-stim","137","267823","0.0-137.0","652d7223-2356-43e0-a173-c6d0400f0b6a","","500","500","fixation","","<div class = centerbox><div class = fixation>+</div></div>","none","500","test","","","","","","","","",""
"503","71","poldrack-categorize","138","270336","0.0-138.0","652d7223-2356-43e0-a173-c6d0400f0b6a","","1500","250","stim","","<div class = centerbox><div class = stroop-stim style = ""color:green"">GREEN</div></div>","66,71,82","1500","test","true","71","500","congruent","green","green","","",""
"-1","-1","poldrack-single-stim","139","271094","0.0-139.0","652d7223-2356-43e0-a173-c6d0400f0b6a","","500","500","fixation","","<div class = centerbox><div class = fixation>+</div></div>","none","500","test","","","","","","","","",""
"526","66","poldrack-categorize","140","273604","0.0-140.0","652d7223-2356-43e0-a173-c6d0400f0b6a","","1500","250","stim","","<div class = centerbox><div class = stroop-stim style = ""color:blue"">BLUE</div></div>","66,71,82","1500","test","true","66","500","congruent","blue","blue","","",""
"-1","-1","poldrack-single-stim","141","274365","0.0-141.0","652d7223-2356-43e0-a173-c6d0400f0b6a","","500","500","fixation","","<div class = centerbox><div class = fixation>+</div></div>","none","500","test","","","","","","","","",""
"822","66","poldrack-categorize","142","276878","0.0-142.0","652d7223-2356-43e0-a173-c6d0400f0b6a","","1500","250","stim","","<div class = centerbox><div class = stroop-stim style = ""color:blue"">RED</div></div>","66,71,82","1500","test","true","66","500","incongruent","blue","red","","",""
"-1","-1","poldrack-single-stim","143","277639","0.0-143.0","652d7223-2356-43e0-a173-c6d0400f0b6a","","500","500","fixation","","<div class = centerbox><div class = fixation>+</div></div>","none","500","test","","","","","","","","",""
"519","66","poldrack-categorize","144","280152","0.0-144.0","652d7223-2356-43e0-a173-c6d0400f0b6a","","1500","250","stim","","<div class = centerbox><div class = stroop-stim style = ""color:blue"">RED</div></div>","66,71,82","1500","test","true","66","500","incongruent","blue","red","","",""
"-1","-1","poldrack-single-stim","145","280912","0.0-145.0","652d7223-2356-43e0-a173-c6d0400f0b6a","","500","500","fixation","","<div class = centerbox><div class = fixation>+</div></div>","none","500","test","","","","","","","","",""
"630","66","poldrack-categorize","146","283426","0.0-146.0","652d7223-2356-43e0-a173-c6d0400f0b6a","","1500","250","stim","","<div class = centerbox><div class = stroop-stim style = ""color:blue"">RED</div></div>","66,71,82","1500","test","true","66","500","incongruent","blue","red","","",""
"-1","-1","poldrack-single-stim","147","284186","0.0-147.0","652d7223-2356-43e0-a173-c6d0400f0b6a","","500","500","fixation","","<div class = centerbox><div class = fixation>+</div></div>","none","500","test","","","","","","","","",""
"834","66","poldrack-categorize","148","286699","0.0-148.0","652d7223-2356-43e0-a173-c6d0400f0b6a","","1500","250","stim","","<div class = centerbox><div class = stroop-stim style = ""color:blue"">GREEN</div></div>","66,71,82","1500","test","true","66","500","incongruent","blue","green","","",""
"-1","-1","poldrack-single-stim","149","287460","0.0-149.0","652d7223-2356-43e0-a173-c6d0400f0b6a","","500","500","fixation","","<div class = centerbox><div class = fixation>+</div></div>","none","500","test","","","","","","","","",""
"790","66","poldrack-categorize","150","289968","0.0-150.0","652d7223-2356-43e0-a173-c6d0400f0b6a","","1500","250","stim","","<div class = centerbox><div class = stroop-stim style = ""color:blue"">BLUE</div></div>","66,71,82","1500","test","true","66","500","congruent","blue","blue","","",""
"-1","-1","poldrack-single-stim","151","290728","0.0-151.0","652d7223-2356-43e0-a173-c6d0400f0b6a","","500","500","fixation","","<div class = centerbox><div class = fixation>+</div></div>","none","500","test","","","","","","","","",""
"1491","82","poldrack-categorize","152","293241","0.0-152.0","652d7223-2356-43e0-a173-c6d0400f0b6a","","1500","250","stim","","<div class = centerbox><div class = stroop-stim style = ""color:red"">GREEN</div></div>","66,71,82","1500","test","true","82","500","incongruent","red","green","","",""
"-1","-1","poldrack-single-stim","153","293999","0.0-153.0","652d7223-2356-43e0-a173-c6d0400f0b6a","","500","500","fixation","","<div class = centerbox><div class = fixation>+</div></div>","none","500","test","","","","","","","","",""
"683","66","poldrack-categorize","154","296515","0.0-154.0","652d7223-2356-43e0-a173-c6d0400f0b6a","","1500","250","stim","","<div class = centerbox><div class = stroop-stim style = ""color:blue"">RED</div></div>","66,71,82","1500","test","true","66","500","incongruent","blue","red","","",""
"-1","-1","poldrack-single-stim","155","297276","0.0-155.0","652d7223-2356-43e0-a173-c6d0400f0b6a","","500","500","fixation","","<div class = centerbox><div class = fixation>+</div></div>","none","500","test","","","","","","","","",""
"558","82","poldrack-categorize","156","299783","0.0-156.0","652d7223-2356-43e0-a173-c6d0400f0b6a","","1500","250","stim","","<div class = centerbox><div class = stroop-stim style = ""color:red"">RED</div></div>","66,71,82","1500","test","true","82","500","congruent","red","red","","",""
"-1","-1","poldrack-single-stim","157","300544","0.0-157.0","652d7223-2356-43e0-a173-c6d0400f0b6a","","500","500","fixation","","<div class = centerbox><div class = fixation>+</div></div>","none","500","test","","","","","","","","",""
"540","71","poldrack-categorize","158","303057","0.0-158.0","652d7223-2356-43e0-a173-c6d0400f0b6a","","1500","250","stim","","<div class = centerbox><div class = stroop-stim style = ""color:green"">GREEN</div></div>","66,71,82","1500","test","true","71","500","congruent","green","green","","",""
"-1","-1","poldrack-single-stim","159","303816","0.0-159.0","652d7223-2356-43e0-a173-c6d0400f0b6a","","500","500","fixation","","<div class = centerbox><div class = fixation>+</div></div>","none","500","test","","","","","","","","",""
"531","71","poldrack-categorize","160","306331","0.0-160.0","652d7223-2356-43e0-a173-c6d0400f0b6a","","1500","250","stim","","<div class = centerbox><div class = stroop-stim style = ""color:green"">BLUE</div></div>","66,71,82","1500","test","true","71","500","incongruent","green","blue","","",""
"-1","-1","poldrack-single-stim","161","307091","0.0-161.0","652d7223-2356-43e0-a173-c6d0400f0b6a","","500","500","fixation","","<div class = centerbox><div class = fixation>+</div></div>","none","500","test","","","","","","","","",""
"-1","-1","poldrack-categorize","162","309599","0.0-162.0","652d7223-2356-43e0-a173-c6d0400f0b6a","","1500","250","stim","","<div class = centerbox><div class = stroop-stim style = ""color:blue"">RED</div></div>","66,71,82","1500","test","false","66","500","incongruent","blue","red","","",""
"-1","-1","poldrack-single-stim","163","310359","0.0-163.0","652d7223-2356-43e0-a173-c6d0400f0b6a","","500","500","fixation","","<div class = centerbox><div class = fixation>+</div></div>","none","500","test","","","","","","","","",""
"624","82","poldrack-categorize","164","312872","0.0-164.0","652d7223-2356-43e0-a173-c6d0400f0b6a","","1500","250","stim","","<div class = centerbox><div class = stroop-stim style = ""color:red"">BLUE</div></div>","66,71,82","1500","test","true","82","500","incongruent","red","blue","","",""
"-1","-1","poldrack-single-stim","165","313629","0.0-165.0","652d7223-2356-43e0-a173-c6d0400f0b6a","","500","500","fixation","","<div class = centerbox><div class = fixation>+</div></div>","none","500","test","","","","","","","","",""
"798","71","poldrack-categorize","166","316140","0.0-166.0","652d7223-2356-43e0-a173-c6d0400f0b6a","","1500","250","stim","","<div class = centerbox><div class = stroop-stim style = ""color:green"">RED</div></div>","66,71,82","1500","test","true","71","500","incongruent","green","red","","",""
"-1","-1","poldrack-single-stim","167","316901","0.0-167.0","652d7223-2356-43e0-a173-c6d0400f0b6a","","500","500","fixation","","<div class = centerbox><div class = fixation>+</div></div>","none","500","test","","","","","","","","",""
"475","71","poldrack-categorize","168","319414","0.0-168.0","652d7223-2356-43e0-a173-c6d0400f0b6a","","1500","250","stim","","<div class = centerbox><div class = stroop-stim style = ""color:green"">GREEN</div></div>","66,71,82","1500","test","true","71","500","congruent","green","green","","",""
"-1","-1","poldrack-single-stim","169","320175","0.0-169.0","652d7223-2356-43e0-a173-c6d0400f0b6a","","500","500","fixation","","<div class = centerbox><div class = fixation>+</div></div>","none","500","test","","","","","","","","",""
"565","82","poldrack-categorize","170","322688","0.0-170.0","652d7223-2356-43e0-a173-c6d0400f0b6a","","1500","250","stim","","<div class = centerbox><div class = stroop-stim style = ""color:red"">RED</div></div>","66,71,82","1500","test","true","82","500","congruent","red","red","","",""
"-1","-1","poldrack-single-stim","171","323449","0.0-171.0","652d7223-2356-43e0-a173-c6d0400f0b6a","","500","500","fixation","","<div class = centerbox><div class = fixation>+</div></div>","none","500","test","","","","","","","","",""
"991","66","poldrack-categorize","172","325962","0.0-172.0","652d7223-2356-43e0-a173-c6d0400f0b6a","","1500","250","stim","","<div class = centerbox><div class = stroop-stim style = ""color:blue"">GREEN</div></div>","66,71,82","1500","test","true","66","500","incongruent","blue","green","","",""
"-1","-1","poldrack-single-stim","173","326723","0.0-173.0","652d7223-2356-43e0-a173-c6d0400f0b6a","","500","500","fixation","","<div class = centerbox><div class = fixation>+</div></div>","none","500","test","","","","","","","","",""
"395","71","poldrack-categorize","174","329236","0.0-174.0","652d7223-2356-43e0-a173-c6d0400f0b6a","","1500","250","stim","","<div class = centerbox><div class = stroop-stim style = ""color:green"">RED</div></div>","66,71,82","1500","test","true","71","500","incongruent","green","red","","",""
"-1","-1","poldrack-single-stim","175","329993","0.0-175.0","652d7223-2356-43e0-a173-c6d0400f0b6a","","500","500","fixation","","<div class = centerbox><div class = fixation>+</div></div>","none","500","test","","","","","","","","",""
"431","71","poldrack-categorize","176","332504","0.0-176.0","652d7223-2356-43e0-a173-c6d0400f0b6a","","1500","250","stim","","<div class = centerbox><div class = stroop-stim style = ""color:green"">RED</div></div>","66,71,82","1500","test","true","71","500","incongruent","green","red","","",""
"-1","-1","poldrack-single-stim","177","333264","0.0-177.0","652d7223-2356-43e0-a173-c6d0400f0b6a","","500","500","fixation","","<div class = centerbox><div class = fixation>+</div></div>","none","500","test","","","","","","","","",""
"470","71","poldrack-categorize","178","335778","0.0-178.0","652d7223-2356-43e0-a173-c6d0400f0b6a","","1500","250","stim","","<div class = centerbox><div class = stroop-stim style = ""color:green"">BLUE</div></div>","66,71,82","1500","test","true","71","500","incongruent","green","blue","","",""
"-1","-1","poldrack-single-stim","179","336538","0.0-179.0","652d7223-2356-43e0-a173-c6d0400f0b6a","","500","500","fixation","","<div class = centerbox><div class = fixation>+</div></div>","none","500","test","","","","","","","","",""
"470","71","poldrack-categorize","180","339051","0.0-180.0","652d7223-2356-43e0-a173-c6d0400f0b6a","","1500","250","stim","","<div class = centerbox><div class = stroop-stim style = ""color:green"">BLUE</div></div>","66,71,82","1500","test","true","71","500","incongruent","green","blue","","",""
"-1","-1","poldrack-single-stim","181","339810","0.0-181.0","652d7223-2356-43e0-a173-c6d0400f0b6a","","500","500","fixation","","<div class = centerbox><div class = fixation>+</div></div>","none","500","test","","","","","","","","",""
"436","71","poldrack-categorize","182","342319","0.0-182.0","652d7223-2356-43e0-a173-c6d0400f0b6a","","1500","250","stim","","<div class = centerbox><div class = stroop-stim style = ""color:green"">GREEN</div></div>","66,71,82","1500","test","true","71","500","congruent","green","green","","",""
"-1","-1","poldrack-single-stim","183","343080","0.0-183.0","652d7223-2356-43e0-a173-c6d0400f0b6a","","500","500","fixation","","<div class = centerbox><div class = fixation>+</div></div>","none","500","test","","","","","","","","",""
"598","66","poldrack-categorize","184","345593","0.0-184.0","652d7223-2356-43e0-a173-c6d0400f0b6a","","1500","250","stim","","<div class = centerbox><div class = stroop-stim style = ""color:blue"">BLUE</div></div>","66,71,82","1500","test","true","66","500","congruent","blue","blue","","",""
"-1","-1","poldrack-single-stim","185","346354","0.0-185.0","652d7223-2356-43e0-a173-c6d0400f0b6a","","500","500","fixation","","<div class = centerbox><div class = fixation>+</div></div>","none","500","test","","","","","","","","",""
"802","71","poldrack-categorize","186","348867","0.0-186.0","652d7223-2356-43e0-a173-c6d0400f0b6a","","1500","250","stim","","<div class = centerbox><div class = stroop-stim style = ""color:green"">BLUE</div></div>","66,71,82","1500","test","true","71","500","incongruent","green","blue","","",""
"-1","-1","poldrack-single-stim","187","349628","0.0-187.0","652d7223-2356-43e0-a173-c6d0400f0b6a","","500","500","fixation","","<div class = centerbox><div class = fixation>+</div></div>","none","500","test","","","","","","","","",""
"508","71","poldrack-categorize","188","352141","0.0-188.0","652d7223-2356-43e0-a173-c6d0400f0b6a","","1500","250","stim","","<div class = centerbox><div class = stroop-stim style = ""color:green"">BLUE</div></div>","66,71,82","1500","test","true","71","500","incongruent","green","blue","","",""
"-1","-1","poldrack-single-stim","189","352896","0.0-189.0","652d7223-2356-43e0-a173-c6d0400f0b6a","","500","500","fixation","","<div class = centerbox><div class = fixation>+</div></div>","none","500","test","","","","","","","","",""
"649","82","poldrack-categorize","190","355403","0.0-190.0","652d7223-2356-43e0-a173-c6d0400f0b6a","","1500","250","stim","","<div class = centerbox><div class = stroop-stim style = ""color:red"">RED</div></div>","66,71,82","1500","test","true","82","500","congruent","red","red","","",""
"-1","-1","poldrack-single-stim","191","356164","0.0-191.0","652d7223-2356-43e0-a173-c6d0400f0b6a","","500","500","fixation","","<div class = centerbox><div class = fixation>+</div></div>","none","500","test","","","","","","","","",""
"474","82","poldrack-categorize","192","358676","0.0-192.0","652d7223-2356-43e0-a173-c6d0400f0b6a","","1500","250","stim","","<div class = centerbox><div class = stroop-stim style = ""color:red"">RED</div></div>","66,71,82","1500","test","true","82","500","congruent","red","red","","",""
"-1","-1","poldrack-single-stim","193","359434","0.0-193.0","652d7223-2356-43e0-a173-c6d0400f0b6a","","500","500","fixation","","<div class = centerbox><div class = fixation>+</div></div>","none","500","test","","","","","","","","",""
"526","66","poldrack-categorize","194","361945","0.0-194.0","652d7223-2356-43e0-a173-c6d0400f0b6a","","1500","250","stim","","<div class = centerbox><div class = stroop-stim style = ""color:blue"">BLUE</div></div>","66,71,82","1500","test","true","66","500","congruent","blue","blue","","",""
"-1","-1","poldrack-single-stim","195","362705","0.0-195.0","652d7223-2356-43e0-a173-c6d0400f0b6a","","500","500","fixation","","<div class = centerbox><div class = fixation>+</div></div>","none","500","test","","","","","","","","",""
"459","66","poldrack-categorize","196","365219","0.0-196.0","652d7223-2356-43e0-a173-c6d0400f0b6a","","1500","250","stim","","<div class = centerbox><div class = stroop-stim style = ""color:blue"">BLUE</div></div>","66,71,82","1500","test","true","66","500","congruent","blue","blue","","",""
"-1","-1","poldrack-single-stim","197","365979","0.0-197.0","652d7223-2356-43e0-a173-c6d0400f0b6a","","500","500","fixation","","<div class = centerbox><div class = fixation>+</div></div>","none","500","test","","","","","","","","",""
"594","71","poldrack-categorize","198","368492","0.0-198.0","652d7223-2356-43e0-a173-c6d0400f0b6a","","1500","250","stim","","<div class = centerbox><div class = stroop-stim style = ""color:green"">GREEN</div></div>","66,71,82","1500","test","true","71","500","congruent","green","green","","",""
"-1","-1","poldrack-single-stim","199","369249","0.0-199.0","652d7223-2356-43e0-a173-c6d0400f0b6a","","500","500","fixation","","<div class = centerbox><div class = fixation>+</div></div>","none","500","test","","","","","","","","",""
"430","71","poldrack-categorize","200","371760","0.0-200.0","652d7223-2356-43e0-a173-c6d0400f0b6a","","1500","250","stim","","<div class = centerbox><div class = stroop-stim style = ""color:green"">GREEN</div></div>","66,71,82","1500","test","true","71","500","congruent","green","green","","",""
"-1","-1","poldrack-single-stim","201","372521","0.0-201.0","652d7223-2356-43e0-a173-c6d0400f0b6a","","500","500","fixation","","<div class = centerbox><div class = fixation>+</div></div>","none","500","test","","","","","","","","",""
"644","82","poldrack-categorize","202","375034","0.0-202.0","652d7223-2356-43e0-a173-c6d0400f0b6a","","1500","250","stim","","<div class = centerbox><div class = stroop-stim style = ""color:red"">GREEN</div></div>","66,71,82","1500","test","true","82","500","incongruent","red","green","","",""
"-1","-1","poldrack-single-stim","203","375795","0.0-203.0","652d7223-2356-43e0-a173-c6d0400f0b6a","","500","500","fixation","","<div class = centerbox><div class = fixation>+</div></div>","none","500","test","","","","","","","","",""
"566","82","poldrack-categorize","204","378308","0.0-204.0","652d7223-2356-43e0-a173-c6d0400f0b6a","","1500","250","stim","","<div class = centerbox><div class = stroop-stim style = ""color:red"">RED</div></div>","66,71,82","1500","test","true","82","500","congruent","red","red","","",""
"-1","-1","poldrack-single-stim","205","379069","0.0-205.0","652d7223-2356-43e0-a173-c6d0400f0b6a","","500","500","fixation","","<div class = centerbox><div class = fixation>+</div></div>","none","500","test","","","","","","","","",""
"476","82","poldrack-categorize","206","381582","0.0-206.0","652d7223-2356-43e0-a173-c6d0400f0b6a","","1500","250","stim","","<div class = centerbox><div class = stroop-stim style = ""color:red"">GREEN</div></div>","66,71,82","1500","test","true","82","500","incongruent","red","green","","",""
"-1","-1","poldrack-single-stim","207","382342","0.0-207.0","652d7223-2356-43e0-a173-c6d0400f0b6a","","500","500","fixation","","<div class = centerbox><div class = fixation>+</div></div>","none","500","test","","","","","","","","",""
"915","82","poldrack-categorize","208","384856","0.0-208.0","652d7223-2356-43e0-a173-c6d0400f0b6a","","1500","250","stim","","<div class = centerbox><div class = stroop-stim style = ""color:red"">BLUE</div></div>","66,71,82","1500","test","true","82","500","incongruent","red","blue","","",""
"-1","-1","poldrack-single-stim","209","385616","0.0-209.0","652d7223-2356-43e0-a173-c6d0400f0b6a","","500","500","fixation","","<div class = centerbox><div class = fixation>+</div></div>","none","500","test","","","","","","","","",""
"589","71","poldrack-categorize","210","388129","0.0-210.0","652d7223-2356-43e0-a173-c6d0400f0b6a","","1500","250","stim","","<div class = centerbox><div class = stroop-stim style = ""color:green"">GREEN</div></div>","66,71,82","1500","test","true","71","500","congruent","green","green","","",""
"-1","-1","poldrack-single-stim","211","388890","0.0-211.0","652d7223-2356-43e0-a173-c6d0400f0b6a","","500","500","fixation","","<div class = centerbox><div class = fixation>+</div></div>","none","500","test","","","","","","","","",""
"576","82","poldrack-categorize","212","391403","0.0-212.0","652d7223-2356-43e0-a173-c6d0400f0b6a","","1500","250","stim","","<div class = centerbox><div class = stroop-stim style = ""color:red"">RED</div></div>","66,71,82","1500","test","true","82","500","congruent","red","red","","",""
"-1","-1","poldrack-single-stim","213","392164","0.0-213.0","652d7223-2356-43e0-a173-c6d0400f0b6a","","500","500","fixation","","<div class = centerbox><div class = fixation>+</div></div>","none","500","test","","","","","","","","",""
"532","82","poldrack-categorize","214","394677","0.0-214.0","652d7223-2356-43e0-a173-c6d0400f0b6a","","1500","250","stim","","<div class = centerbox><div class = stroop-stim style = ""color:red"">RED</div></div>","66,71,82","1500","test","true","82","500","congruent","red","red","","",""
"-1","-1","poldrack-single-stim","215","395436","0.0-215.0","652d7223-2356-43e0-a173-c6d0400f0b6a","","500","500","fixation","","<div class = centerbox><div class = fixation>+</div></div>","none","500","test","","","","","","","","",""
"521","71","poldrack-categorize","216","397951","0.0-216.0","652d7223-2356-43e0-a173-c6d0400f0b6a","","1500","250","stim","","<div class = centerbox><div class = stroop-stim style = ""color:green"">GREEN</div></div>","66,71,82","1500","test","true","71","500","congruent","green","green","","",""
"-1","-1","poldrack-single-stim","217","398711","0.0-217.0","652d7223-2356-43e0-a173-c6d0400f0b6a","","500","500","fixation","","<div class = centerbox><div class = fixation>+</div></div>","none","500","test","","","","","","","","",""
"454","71","poldrack-categorize","218","401225","0.0-218.0","652d7223-2356-43e0-a173-c6d0400f0b6a","","1500","250","stim","","<div class = centerbox><div class = stroop-stim style = ""color:green"">GREEN</div></div>","66,71,82","1500","test","true","71","500","congruent","green","green","","",""
"-1","-1","poldrack-single-stim","219","401985","0.0-219.0","652d7223-2356-43e0-a173-c6d0400f0b6a","","500","500","fixation","","<div class = centerbox><div class = fixation>+</div></div>","none","500","test","","","","","","","","",""
"633","82","poldrack-categorize","220","404498","0.0-220.0","652d7223-2356-43e0-a173-c6d0400f0b6a","","1500","250","stim","","<div class = centerbox><div class = stroop-stim style = ""color:red"">RED</div></div>","66,71,82","1500","test","true","82","500","congruent","red","red","","",""
"-1","-1","poldrack-single-stim","221","405259","0.0-221.0","652d7223-2356-43e0-a173-c6d0400f0b6a","","500","500","fixation","","<div class = centerbox><div class = fixation>+</div></div>","none","500","test","","","","","","","","",""
"623","66","poldrack-categorize","222","407772","0.0-222.0","652d7223-2356-43e0-a173-c6d0400f0b6a","","1500","250","stim","","<div class = centerbox><div class = stroop-stim style = ""color:blue"">GREEN</div></div>","66,71,82","1500","test","true","66","500","incongruent","blue","green","","",""
"-1","-1","poldrack-single-stim","223","408527","0.0-223.0","652d7223-2356-43e0-a173-c6d0400f0b6a","","500","500","fixation","","<div class = centerbox><div class = fixation>+</div></div>","none","500","test","","","","","","","","",""
"480","66","poldrack-categorize","224","411040","0.0-224.0","652d7223-2356-43e0-a173-c6d0400f0b6a","","1500","250","stim","","<div class = centerbox><div class = stroop-stim style = ""color:blue"">GREEN</div></div>","66,71,82","1500","test","true","66","500","incongruent","blue","green","","",""
"-1","-1","poldrack-single-stim","225","411801","0.0-225.0","652d7223-2356-43e0-a173-c6d0400f0b6a","","500","500","fixation","","<div class = centerbox><div class = fixation>+</div></div>","none","500","test","","","","","","","","",""
"538","66","poldrack-categorize","226","414314","0.0-226.0","652d7223-2356-43e0-a173-c6d0400f0b6a","","1500","250","stim","","<div class = centerbox><div class = stroop-stim style = ""color:blue"">BLUE</div></div>","66,71,82","1500","test","true","66","500","congruent","blue","blue","","",""
"-1","-1","poldrack-single-stim","227","415075","0.0-227.0","652d7223-2356-43e0-a173-c6d0400f0b6a","","500","500","fixation","","<div class = centerbox><div class = fixation>+</div></div>","none","500","test","","","","","","","","",""
"999","82","poldrack-categorize","228","417584","0.0-228.0","652d7223-2356-43e0-a173-c6d0400f0b6a","","1500","250","stim","","<div class = centerbox><div class = stroop-stim style = ""color:red"">RED</div></div>","66,71,82","1500","test","true","82","500","congruent","red","red","","",""
"-1","-1","poldrack-single-stim","229","418343","0.0-229.0","652d7223-2356-43e0-a173-c6d0400f0b6a","","500","500","fixation","","<div class = centerbox><div class = fixation>+</div></div>","none","500","test","","","","","","","","",""
"443","71","poldrack-categorize","230","420856","0.0-230.0","652d7223-2356-43e0-a173-c6d0400f0b6a","","1500","250","stim","","<div class = centerbox><div class = stroop-stim style = ""color:green"">BLUE</div></div>","66,71,82","1500","test","true","71","500","incongruent","green","blue","","",""
"-1","-1","poldrack-single-stim","231","421616","0.0-231.0","652d7223-2356-43e0-a173-c6d0400f0b6a","","500","500","fixation","","<div class = centerbox><div class = fixation>+</div></div>","none","500","test","","","","","","","","",""
"622","71","poldrack-categorize","232","424130","0.0-232.0","652d7223-2356-43e0-a173-c6d0400f0b6a","","1500","250","stim","","<div class = centerbox><div class = stroop-stim style = ""color:green"">RED</div></div>","66,71,82","1500","test","true","71","500","incongruent","green","red","","",""
"-1","-1","poldrack-single-stim","233","424890","0.0-233.0","652d7223-2356-43e0-a173-c6d0400f0b6a","","500","500","fixation","","<div class = centerbox><div class = fixation>+</div></div>","none","500","test","","","","","","","","",""
"814","66","poldrack-categorize","234","427398","0.0-234.0","652d7223-2356-43e0-a173-c6d0400f0b6a","","1500","250","stim","","<div class = centerbox><div class = stroop-stim style = ""color:blue"">GREEN</div></div>","66,71,82","1500","test","true","66","500","incongruent","blue","green","","",""
"-1","-1","poldrack-single-stim","235","428158","0.0-235.0","652d7223-2356-43e0-a173-c6d0400f0b6a","","500","500","fixation","","<div class = centerbox><div class = fixation>+</div></div>","none","500","test","","","","","","","","",""
"559","82","poldrack-categorize","236","430671","0.0-236.0","652d7223-2356-43e0-a173-c6d0400f0b6a","","1500","250","stim","","<div class = centerbox><div class = stroop-stim style = ""color:red"">RED</div></div>","66,71,82","1500","test","true","82","500","congruent","red","red","","",""
"-1","-1","poldrack-single-stim","237","431432","0.0-237.0","652d7223-2356-43e0-a173-c6d0400f0b6a","","500","500","fixation","","<div class = centerbox><div class = fixation>+</div></div>","none","500","test","","","","","","","","",""
"571","71","poldrack-categorize","238","433945","0.0-238.0","652d7223-2356-43e0-a173-c6d0400f0b6a","","1500","250","stim","","<div class = centerbox><div class = stroop-stim style = ""color:green"">RED</div></div>","66,71,82","1500","test","true","71","500","incongruent","green","red","","",""
"-1","-1","poldrack-single-stim","239","434706","0.0-239.0","652d7223-2356-43e0-a173-c6d0400f0b6a","","500","500","fixation","","<div class = centerbox><div class = fixation>+</div></div>","none","500","test","","","","","","","","",""
"550","66","poldrack-categorize","240","437219","0.0-240.0","652d7223-2356-43e0-a173-c6d0400f0b6a","","1500","250","stim","","<div class = centerbox><div class = stroop-stim style = ""color:blue"">BLUE</div></div>","66,71,82","1500","test","true","66","500","congruent","blue","blue","","",""
"-1","-1","poldrack-single-stim","241","437979","0.0-241.0","652d7223-2356-43e0-a173-c6d0400f0b6a","","500","500","fixation","","<div class = centerbox><div class = fixation>+</div></div>","none","500","test","","","","","","","","",""
"415","66","poldrack-categorize","242","440493","0.0-242.0","652d7223-2356-43e0-a173-c6d0400f0b6a","","1500","250","stim","","<div class = centerbox><div class = stroop-stim style = ""color:blue"">BLUE</div></div>","66,71,82","1500","test","true","66","500","congruent","blue","blue","","",""
"-1","-1","poldrack-single-stim","243","441253","0.0-243.0","652d7223-2356-43e0-a173-c6d0400f0b6a","","500","500","fixation","","<div class = centerbox><div class = fixation>+</div></div>","none","500","test","","","","","","","","",""
"649","82","poldrack-categorize","244","443767","0.0-244.0","652d7223-2356-43e0-a173-c6d0400f0b6a","","1500","250","stim","","<div class = centerbox><div class = stroop-stim style = ""color:red"">RED</div></div>","66,71,82","1500","test","true","82","500","congruent","red","red","","",""
"88577","","survey-text","245","532613","0.0-246.0","652d7223-2356-43e0-a173-c6d0400f0b6a","","","","post task questions","","","","","","","","","","","","{""Q0"":""I was supposed to identify the color of the ink not the color the word was spelling out."",""Q1"":""The task was easy if I looked away from the word and used my peripheral vision so that I would register the color first.""}","",""
"2123","13","poldrack-text","246","535739","0.0-247.0","652d7223-2356-43e0-a173-c6d0400f0b6a","<div class = centerbox><p class = center-block-text>Thanks for completing this task!</p><p class = center-block-text>Press <strong>enter</strong> to continue.</p></div>","2123","0","end","","","","","","","","","","","","","stroop","true"
"188685","13","text","247","724461","0.0-248.0","652d7223-2356-43e0-a173-c6d0400f0b6a","","","","","","","","","","","","","","","","","",""
