rt,key_press,trial_type,trial_index,time_elapsed,internal_node_id,subject,text,block_duration,timing_post_trial,trial_id,view_history,stimulus,possible_responses,stim_duration,exp_stage,stim_place,stim_id,condition,correct,correct_response,responses,exp_id,feedback_duration,stim_color,stim_word,credit_var2415,13,text,0,2418,0.0-0.0,dfdbd621-d685-432c-ab1f-8f57011179f9,,,,,,,,,,,,,,,,,,,,2808,13,poldrack-text,389,394542,0.0-388.0-0.0,dfdbd621-d685-432c-ab1f-8f57011179f9,<div class = centerbox><p class = center-block-text>Done with instructions. Press <strong>enter</strong> to continue.</p></div>,2808,0,instruction,,,,,,,,,,,,,,,,20416,,poldrack-instructions,390,414959,0.0-388.0-1.0,dfdbd621-d685-432c-ab1f-8f57011179f9,,,,instruction,"[{""page_index"":0,""viewing_time"":20416}]",,,,,,,,,,,,,,,7415,13,poldrack-text,391,423381,0.0-389.0,dfdbd621-d685-432c-ab1f-8f57011179f9,"<div class = centerbox><p class = block-text>We will start with a few practice trials. Remember, press the key corresponding to the <strong>ink</strong> color of the word: ""r"" for words colored red, ""b"" for words colored blue, and ""g"" for words colored green.</p><p class = block-text>Press <strong>enter</strong> to begin practice.</p></div>",7415,1000,practice_intro,,,,,,,,,,,,,,,,-1,-1,poldrack-single-stim,392,424889,0.0-390.0,dfdbd621-d685-432c-ab1f-8f57011179f9,,500,500,fixation,,<div class = centerbox><div class = fixation>+</div></div>,none,500,practice,,,,,,,,,,,929,66,poldrack-categorize,393,427403,0.0-391.0,dfdbd621-d685-432c-ab1f-8f57011179f9,,1500,250,stim,,"<div class = centerbox><div class = stroop-stim style = ""color:blue"">BLUE</div></div>","66,71,82",1500,practice,,,congruent,TRUE,66,,,500,blue,blue,-1,-1,poldrack-single-stim,394,428164,0.0-392.0,dfdbd621-d685-432c-ab1f-8f57011179f9,,500,500,fixation,,<div class = centerbox><div class = fixation>+</div></div>,none,500,practice,,,,,,,,,,,1376,82,poldrack-categorize,395,430677,0.0-393.0,dfdbd621-d685-432c-ab1f-8f57011179f9,,1500,250,stim,,"<div class = centerbox><div class = stroop-stim style = ""color:red"">RED</div></div>","66,71,82",1500,practice,,,congruent,TRUE,82,,,500,red,red,-1,-1,poldrack-single-stim,396,431437,0.0-394.0,dfdbd621-d685-432c-ab1f-8f57011179f9,,500,500,fixation,,<div class = centerbox><div class = fixation>+</div></div>,none,500,practice,,,,,,,,,,,542,71,poldrack-categorize,397,433951,0.0-395.0,dfdbd621-d685-432c-ab1f-8f57011179f9,,1500,250,stim,,"<div class = centerbox><div class = stroop-stim style = ""color:green"">GREEN</div></div>","66,71,82",1500,practice,,,congruent,TRUE,71,,,500,green,green,-1,-1,poldrack-single-stim,398,434711,0.0-396.0,dfdbd621-d685-432c-ab1f-8f57011179f9,,500,500,fixation,,<div class = centerbox><div class = fixation>+</div></div>,none,500,practice,,,,,,,,,,,692,71,poldrack-categorize,399,437225,0.0-397.0,dfdbd621-d685-432c-ab1f-8f57011179f9,,1500,250,stim,,"<div class = centerbox><div class = stroop-stim style = ""color:green"">RED</div></div>","66,71,82",1500,practice,,,incongruent,TRUE,71,,,500,green,red,-1,-1,poldrack-single-stim,400,437985,0.0-398.0,dfdbd621-d685-432c-ab1f-8f57011179f9,,500,500,fixation,,<div class = centerbox><div class = fixation>+</div></div>,none,500,practice,,,,,,,,,,,434,71,poldrack-categorize,401,440499,0.0-399.0,dfdbd621-d685-432c-ab1f-8f57011179f9,,1500,250,stim,,"<div class = centerbox><div class = stroop-stim style = ""color:green"">BLUE</div></div>","66,71,82",1500,practice,,,incongruent,TRUE,71,,,500,green,blue,-1,-1,poldrack-single-stim,402,441259,0.0-400.0,dfdbd621-d685-432c-ab1f-8f57011179f9,,500,500,fixation,,<div class = centerbox><div class = fixation>+</div></div>,none,500,practice,,,,,,,,,,,408,71,poldrack-categorize,403,443773,0.0-401.0,dfdbd621-d685-432c-ab1f-8f57011179f9,,1500,250,stim,,"<div class = centerbox><div class = stroop-stim style = ""color:green"">RED</div></div>","66,71,82",1500,practice,,,incongruent,TRUE,71,,,500,green,red,-1,-1,poldrack-single-stim,404,444527,0.0-402.0,dfdbd621-d685-432c-ab1f-8f57011179f9,,500,500,fixation,,<div class = centerbox><div class = fixation>+</div></div>,none,500,practice,,,,,,,,,,,564,71,poldrack-categorize,405,447035,0.0-403.0,dfdbd621-d685-432c-ab1f-8f57011179f9,,1500,250,stim,,"<div class = centerbox><div class = stroop-stim style = ""color:green"">BLUE</div></div>","66,71,82",1500,practice,,,incongruent,TRUE,71,,,500,green,blue,-1,-1,poldrack-single-stim,406,447796,0.0-404.0,dfdbd621-d685-432c-ab1f-8f57011179f9,,500,500,fixation,,<div class = centerbox><div class = fixation>+</div></div>,none,500,practice,,,,,,,,,,,832,66,poldrack-categorize,407,450308,0.0-405.0,dfdbd621-d685-432c-ab1f-8f57011179f9,,1500,250,stim,,"<div class = centerbox><div class = stroop-stim style = ""color:blue"">RED</div></div>","66,71,82",1500,practice,,,incongruent,TRUE,66,,,500,blue,red,-1,-1,poldrack-single-stim,408,451068,0.0-406.0,dfdbd621-d685-432c-ab1f-8f57011179f9,,500,500,fixation,,<div class = centerbox><div class = fixation>+</div></div>,none,500,practice,,,,,,,,,,,395,82,poldrack-categorize,409,453576,0.0-407.0,dfdbd621-d685-432c-ab1f-8f57011179f9,,1500,250,stim,,"<div class = centerbox><div class = stroop-stim style = ""color:red"">RED</div></div>","66,71,82",1500,practice,,,congruent,TRUE,82,,,500,red,red,-1,-1,poldrack-single-stim,410,454332,0.0-408.0,dfdbd621-d685-432c-ab1f-8f57011179f9,,500,500,fixation,,<div class = centerbox><div class = fixation>+</div></div>,none,500,practice,,,,,,,,,,,711,66,poldrack-categorize,411,456845,0.0-409.0,dfdbd621-d685-432c-ab1f-8f57011179f9,,1500,250,stim,,"<div class = centerbox><div class = stroop-stim style = ""color:blue"">GREEN</div></div>","66,71,82",1500,practice,,,incongruent,TRUE,66,,,500,blue,green,-1,-1,poldrack-single-stim,412,457606,0.0-410.0,dfdbd621-d685-432c-ab1f-8f57011179f9,,500,500,fixation,,<div class = centerbox><div class = fixation>+</div></div>,none,500,practice,,,,,,,,,,,841,82,poldrack-categorize,413,460112,0.0-411.0,dfdbd621-d685-432c-ab1f-8f57011179f9,,1500,250,stim,,"<div class = centerbox><div class = stroop-stim style = ""color:red"">GREEN</div></div>","66,71,82",1500,practice,,,incongruent,TRUE,82,,,500,red,green,-1,-1,poldrack-single-stim,414,460869,0.0-412.0,dfdbd621-d685-432c-ab1f-8f57011179f9,,500,500,fixation,,<div class = centerbox><div class = fixation>+</div></div>,none,500,practice,,,,,,,,,,,623,66,poldrack-categorize,415,463382,0.0-413.0,dfdbd621-d685-432c-ab1f-8f57011179f9,,1500,250,stim,,"<div class = centerbox><div class = stroop-stim style = ""color:blue"">BLUE</div></div>","66,71,82",1500,practice,,,congruent,TRUE,66,,,500,blue,blue,-1,-1,poldrack-single-stim,416,464142,0.0-414.0,dfdbd621-d685-432c-ab1f-8f57011179f9,,500,500,fixation,,<div class = centerbox><div class = fixation>+</div></div>,none,500,practice,,,,,,,,,,,1013,82,poldrack-categorize,417,466656,0.0-415.0,dfdbd621-d685-432c-ab1f-8f57011179f9,,1500,250,stim,,"<div class = centerbox><div class = stroop-stim style = ""color:red"">BLUE</div></div>","66,71,82",1500,practice,,,incongruent,TRUE,82,,,500,red,blue,-1,-1,poldrack-single-stim,418,467416,0.0-416.0,dfdbd621-d685-432c-ab1f-8f57011179f9,,500,500,fixation,,<div class = centerbox><div class = fixation>+</div></div>,none,500,practice,,,,,,,,,,,502,82,poldrack-categorize,419,469924,0.0-417.0,dfdbd621-d685-432c-ab1f-8f57011179f9,,1500,250,stim,,"<div class = centerbox><div class = stroop-stim style = ""color:red"">RED</div></div>","66,71,82",1500,practice,,,congruent,TRUE,82,,,500,red,red,-1,-1,poldrack-single-stim,420,470684,0.0-418.0,dfdbd621-d685-432c-ab1f-8f57011179f9,,500,500,fixation,,<div class = centerbox><div class = fixation>+</div></div>,none,500,practice,,,,,,,,,,,895,82,poldrack-categorize,421,473198,0.0-419.0,dfdbd621-d685-432c-ab1f-8f57011179f9,,1500,250,stim,,"<div class = centerbox><div class = stroop-stim style = ""color:red"">GREEN</div></div>","66,71,82",1500,practice,,,incongruent,TRUE,82,,,500,red,green,-1,-1,poldrack-single-stim,422,473959,0.0-420.0,dfdbd621-d685-432c-ab1f-8f57011179f9,,500,500,fixation,,<div class = centerbox><div class = fixation>+</div></div>,none,500,practice,,,,,,,,,,,501,66,poldrack-categorize,423,476472,0.0-421.0,dfdbd621-d685-432c-ab1f-8f57011179f9,,1500,250,stim,,"<div class = centerbox><div class = stroop-stim style = ""color:blue"">BLUE</div></div>","66,71,82",1500,practice,,,congruent,TRUE,66,,,500,blue,blue,-1,-1,poldrack-single-stim,424,477232,0.0-422.0,dfdbd621-d685-432c-ab1f-8f57011179f9,,500,500,fixation,,<div class = centerbox><div class = fixation>+</div></div>,none,500,practice,,,,,,,,,,,419,66,poldrack-categorize,425,479746,0.0-423.0,dfdbd621-d685-432c-ab1f-8f57011179f9,,1500,250,stim,,"<div class = centerbox><div class = stroop-stim style = ""color:blue"">RED</div></div>","66,71,82",1500,practice,,,incongruent,TRUE,66,,,500,blue,red,-1,-1,poldrack-single-stim,426,480506,0.0-424.0,dfdbd621-d685-432c-ab1f-8f57011179f9,,500,500,fixation,,<div class = centerbox><div class = fixation>+</div></div>,none,500,practice,,,,,,,,,,,593,82,poldrack-categorize,427,483020,0.0-425.0,dfdbd621-d685-432c-ab1f-8f57011179f9,,1500,250,stim,,"<div class = centerbox><div class = stroop-stim style = ""color:red"">RED</div></div>","66,71,82",1500,practice,,,congruent,TRUE,82,,,500,red,red,-1,-1,poldrack-single-stim,428,483775,0.0-426.0,dfdbd621-d685-432c-ab1f-8f57011179f9,,500,500,fixation,,<div class = centerbox><div class = fixation>+</div></div>,none,500,practice,,,,,,,,,,,565,66,poldrack-categorize,429,486284,0.0-427.0,dfdbd621-d685-432c-ab1f-8f57011179f9,,1500,250,stim,,"<div class = centerbox><div class = stroop-stim style = ""color:blue"">GREEN</div></div>","66,71,82",1500,practice,,,incongruent,TRUE,66,,,500,blue,green,-1,-1,poldrack-single-stim,430,487043,0.0-428.0,dfdbd621-d685-432c-ab1f-8f57011179f9,,500,500,fixation,,<div class = centerbox><div class = fixation>+</div></div>,none,500,practice,,,,,,,,,,,624,71,poldrack-categorize,431,489556,0.0-429.0,dfdbd621-d685-432c-ab1f-8f57011179f9,,1500,250,stim,,"<div class = centerbox><div class = stroop-stim style = ""color:green"">GREEN</div></div>","66,71,82",1500,practice,,,congruent,TRUE,71,,,500,green,green,-1,-1,poldrack-single-stim,432,490315,0.0-430.0,dfdbd621-d685-432c-ab1f-8f57011179f9,,500,500,fixation,,<div class = centerbox><div class = fixation>+</div></div>,none,500,practice,,,,,,,,,,,452,71,poldrack-categorize,433,492824,0.0-431.0,dfdbd621-d685-432c-ab1f-8f57011179f9,,1500,250,stim,,"<div class = centerbox><div class = stroop-stim style = ""color:green"">GREEN</div></div>","66,71,82",1500,practice,,,congruent,TRUE,71,,,500,green,green,-1,-1,poldrack-single-stim,434,493585,0.0-432.0,dfdbd621-d685-432c-ab1f-8f57011179f9,,500,500,fixation,,<div class = centerbox><div class = fixation>+</div></div>,none,500,practice,,,,,,,,,,,394,71,poldrack-categorize,435,496098,0.0-433.0,dfdbd621-d685-432c-ab1f-8f57011179f9,,1500,250,stim,,"<div class = centerbox><div class = stroop-stim style = ""color:green"">GREEN</div></div>","66,71,82",1500,practice,,,congruent,TRUE,71,,,500,green,green,-1,-1,poldrack-single-stim,436,496859,0.0-434.0,dfdbd621-d685-432c-ab1f-8f57011179f9,,500,500,fixation,,<div class = centerbox><div class = fixation>+</div></div>,none,500,practice,,,,,,,,,,,960,82,poldrack-categorize,437,499372,0.0-435.0,dfdbd621-d685-432c-ab1f-8f57011179f9,,1500,250,stim,,"<div class = centerbox><div class = stroop-stim style = ""color:red"">BLUE</div></div>","66,71,82",1500,practice,,,incongruent,TRUE,82,,,500,red,blue,-1,-1,poldrack-single-stim,438,500129,0.0-436.0,dfdbd621-d685-432c-ab1f-8f57011179f9,,500,500,fixation,,<div class = centerbox><div class = fixation>+</div></div>,none,500,practice,,,,,,,,,,,594,66,poldrack-categorize,439,502637,0.0-437.0,dfdbd621-d685-432c-ab1f-8f57011179f9,,1500,250,stim,,"<div class = centerbox><div class = stroop-stim style = ""color:blue"">BLUE</div></div>","66,71,82",1500,practice,,,congruent,TRUE,66,,,500,blue,blue,3121,13,poldrack-text,440,506012,0.0-439.0,dfdbd621-d685-432c-ab1f-8f57011179f9,<div class = centerbox><p class = center-block-text>We will now start the test. Respond exactly like you did during practice.</p><p class = center-block-text>Press <strong>enter</strong> to begin the test.</p></div>,3121,1000,test_intro,,,,,,,,,,,,,,,,-1,-1,poldrack-single-stim,441,507523,0.0-440.0,dfdbd621-d685-432c-ab1f-8f57011179f9,,500,500,fixation,,<div class = centerbox><div class = fixation>+</div></div>,none,500,test,,,,,,,,,,,960,71,poldrack-categorize,442,510033,0.0-441.0,dfdbd621-d685-432c-ab1f-8f57011179f9,,1500,250,stim,,"<div class = centerbox><div class = stroop-stim style = ""color:green"">BLUE</div></div>","66,71,82",1500,test,,,incongruent,TRUE,71,,,500,green,blue,-1,-1,poldrack-single-stim,443,510791,0.0-442.0,dfdbd621-d685-432c-ab1f-8f57011179f9,,500,500,fixation,,<div class = centerbox><div class = fixation>+</div></div>,none,500,test,,,,,,,,,,,564,82,poldrack-categorize,444,513304,0.0-443.0,dfdbd621-d685-432c-ab1f-8f57011179f9,,1500,250,stim,,"<div class = centerbox><div class = stroop-stim style = ""color:red"">RED</div></div>","66,71,82",1500,test,,,congruent,TRUE,82,,,500,red,red,-1,-1,poldrack-single-stim,445,514065,0.0-444.0,dfdbd621-d685-432c-ab1f-8f57011179f9,,500,500,fixation,,<div class = centerbox><div class = fixation>+</div></div>,none,500,test,,,,,,,,,,,601,71,poldrack-categorize,446,516578,0.0-445.0,dfdbd621-d685-432c-ab1f-8f57011179f9,,1500,250,stim,,"<div class = centerbox><div class = stroop-stim style = ""color:green"">RED</div></div>","66,71,82",1500,test,,,incongruent,TRUE,71,,,500,green,red,-1,-1,poldrack-single-stim,447,517339,0.0-446.0,dfdbd621-d685-432c-ab1f-8f57011179f9,,500,500,fixation,,<div class = centerbox><div class = fixation>+</div></div>,none,500,test,,,,,,,,,,,711,82,poldrack-categorize,448,519852,0.0-447.0,dfdbd621-d685-432c-ab1f-8f57011179f9,,1500,250,stim,,"<div class = centerbox><div class = stroop-stim style = ""color:red"">GREEN</div></div>","66,71,82",1500,test,,,incongruent,TRUE,82,,,500,red,green,-1,-1,poldrack-single-stim,449,520613,0.0-448.0,dfdbd621-d685-432c-ab1f-8f57011179f9,,500,500,fixation,,<div class = centerbox><div class = fixation>+</div></div>,none,500,test,,,,,,,,,,,442,71,poldrack-categorize,450,523120,0.0-449.0,dfdbd621-d685-432c-ab1f-8f57011179f9,,1500,250,stim,,"<div class = centerbox><div class = stroop-stim style = ""color:green"">GREEN</div></div>","66,71,82",1500,test,,,congruent,TRUE,71,,,500,green,green,-1,-1,poldrack-single-stim,451,523878,0.0-450.0,dfdbd621-d685-432c-ab1f-8f57011179f9,,500,500,fixation,,<div class = centerbox><div class = fixation>+</div></div>,none,500,test,,,,,,,,,,,687,82,poldrack-categorize,452,526389,0.0-451.0,dfdbd621-d685-432c-ab1f-8f57011179f9,,1500,250,stim,,"<div class = centerbox><div class = stroop-stim style = ""color:red"">GREEN</div></div>","66,71,82",1500,test,,,incongruent,TRUE,82,,,500,red,green,-1,-1,poldrack-single-stim,453,527149,0.0-452.0,dfdbd621-d685-432c-ab1f-8f57011179f9,,500,500,fixation,,<div class = centerbox><div class = fixation>+</div></div>,none,500,test,,,,,,,,,,,581,71,poldrack-categorize,454,529662,0.0-453.0,dfdbd621-d685-432c-ab1f-8f57011179f9,,1500,250,stim,,"<div class = centerbox><div class = stroop-stim style = ""color:green"">GREEN</div></div>","66,71,82",1500,test,,,congruent,TRUE,71,,,500,green,green,-1,-1,poldrack-single-stim,455,530423,0.0-454.0,dfdbd621-d685-432c-ab1f-8f57011179f9,,500,500,fixation,,<div class = centerbox><div class = fixation>+</div></div>,none,500,test,,,,,,,,,,,788,82,poldrack-categorize,456,532937,0.0-455.0,dfdbd621-d685-432c-ab1f-8f57011179f9,,1500,250,stim,,"<div class = centerbox><div class = stroop-stim style = ""color:red"">BLUE</div></div>","66,71,82",1500,test,,,incongruent,TRUE,82,,,500,red,blue,-1,-1,poldrack-single-stim,457,533695,0.0-456.0,dfdbd621-d685-432c-ab1f-8f57011179f9,,500,500,fixation,,<div class = centerbox><div class = fixation>+</div></div>,none,500,test,,,,,,,,,,,607,66,poldrack-categorize,458,536204,0.0-457.0,dfdbd621-d685-432c-ab1f-8f57011179f9,,1500,250,stim,,"<div class = centerbox><div class = stroop-stim style = ""color:blue"">BLUE</div></div>","66,71,82",1500,test,,,congruent,TRUE,66,,,500,blue,blue,-1,-1,poldrack-single-stim,459,536959,0.0-458.0,dfdbd621-d685-432c-ab1f-8f57011179f9,,500,500,fixation,,<div class = centerbox><div class = fixation>+</div></div>,none,500,test,,,,,,,,,,,1019,82,poldrack-categorize,460,539473,0.0-459.0,dfdbd621-d685-432c-ab1f-8f57011179f9,,1500,250,stim,,"<div class = centerbox><div class = stroop-stim style = ""color:red"">BLUE</div></div>","66,71,82",1500,test,,,incongruent,TRUE,82,,,500,red,blue,-1,-1,poldrack-single-stim,461,540234,0.0-460.0,dfdbd621-d685-432c-ab1f-8f57011179f9,,500,500,fixation,,<div class = centerbox><div class = fixation>+</div></div>,none,500,test,,,,,,,,,,,721,71,poldrack-categorize,462,542747,0.0-461.0,dfdbd621-d685-432c-ab1f-8f57011179f9,,1500,250,stim,,"<div class = centerbox><div class = stroop-stim style = ""color:green"">BLUE</div></div>","66,71,82",1500,test,,,incongruent,TRUE,71,,,500,green,blue,-1,-1,poldrack-single-stim,463,543508,0.0-462.0,dfdbd621-d685-432c-ab1f-8f57011179f9,,500,500,fixation,,<div class = centerbox><div class = fixation>+</div></div>,none,500,test,,,,,,,,,,,640,66,poldrack-categorize,464,546021,0.0-463.0,dfdbd621-d685-432c-ab1f-8f57011179f9,,1500,250,stim,,"<div class = centerbox><div class = stroop-stim style = ""color:blue"">BLUE</div></div>","66,71,82",1500,test,,,congruent,TRUE,66,,,500,blue,blue,-1,-1,poldrack-single-stim,465,546781,0.0-464.0,dfdbd621-d685-432c-ab1f-8f57011179f9,,500,500,fixation,,<div class = centerbox><div class = fixation>+</div></div>,none,500,test,,,,,,,,,,,453,66,poldrack-categorize,466,549295,0.0-465.0,dfdbd621-d685-432c-ab1f-8f57011179f9,,1500,250,stim,,"<div class = centerbox><div class = stroop-stim style = ""color:blue"">BLUE</div></div>","66,71,82",1500,test,,,congruent,TRUE,66,,,500,blue,blue,-1,-1,poldrack-single-stim,467,550055,0.0-466.0,dfdbd621-d685-432c-ab1f-8f57011179f9,,500,500,fixation,,<div class = centerbox><div class = fixation>+</div></div>,none,500,test,,,,,,,,,,,619,66,poldrack-categorize,468,552569,0.0-467.0,dfdbd621-d685-432c-ab1f-8f57011179f9,,1500,250,stim,,"<div class = centerbox><div class = stroop-stim style = ""color:blue"">BLUE</div></div>","66,71,82",1500,test,,,congruent,TRUE,66,,,500,blue,blue,-1,-1,poldrack-single-stim,469,553329,0.0-468.0,dfdbd621-d685-432c-ab1f-8f57011179f9,,500,500,fixation,,<div class = centerbox><div class = fixation>+</div></div>,none,500,test,,,,,,,,,,,633,82,poldrack-categorize,470,555843,0.0-469.0,dfdbd621-d685-432c-ab1f-8f57011179f9,,1500,250,stim,,"<div class = centerbox><div class = stroop-stim style = ""color:red"">RED</div></div>","66,71,82",1500,test,,,congruent,TRUE,82,,,500,red,red,-1,-1,poldrack-single-stim,471,556603,0.0-470.0,dfdbd621-d685-432c-ab1f-8f57011179f9,,500,500,fixation,,<div class = centerbox><div class = fixation>+</div></div>,none,500,test,,,,,,,,,,,1079,71,poldrack-categorize,472,559117,0.0-471.0,dfdbd621-d685-432c-ab1f-8f57011179f9,,1500,250,stim,,"<div class = centerbox><div class = stroop-stim style = ""color:green"">GREEN</div></div>","66,71,82",1500,test,,,congruent,TRUE,71,,,500,green,green,-1,-1,poldrack-single-stim,473,559877,0.0-472.0,dfdbd621-d685-432c-ab1f-8f57011179f9,,500,500,fixation,,<div class = centerbox><div class = fixation>+</div></div>,none,500,test,,,,,,,,,,,437,71,poldrack-categorize,474,562391,0.0-473.0,dfdbd621-d685-432c-ab1f-8f57011179f9,,1500,250,stim,,"<div class = centerbox><div class = stroop-stim style = ""color:green"">GREEN</div></div>","66,71,82",1500,test,,,congruent,TRUE,71,,,500,green,green,-1,-1,poldrack-single-stim,475,563151,0.0-474.0,dfdbd621-d685-432c-ab1f-8f57011179f9,,500,500,fixation,,<div class = centerbox><div class = fixation>+</div></div>,none,500,test,,,,,,,,,,,531,66,poldrack-categorize,476,565665,0.0-475.0,dfdbd621-d685-432c-ab1f-8f57011179f9,,1500,250,stim,,"<div class = centerbox><div class = stroop-stim style = ""color:blue"">BLUE</div></div>","66,71,82",1500,test,,,congruent,TRUE,66,,,500,blue,blue,-1,-1,poldrack-single-stim,477,566425,0.0-476.0,dfdbd621-d685-432c-ab1f-8f57011179f9,,500,500,fixation,,<div class = centerbox><div class = fixation>+</div></div>,none,500,test,,,,,,,,,,,665,66,poldrack-categorize,478,568939,0.0-477.0,dfdbd621-d685-432c-ab1f-8f57011179f9,,1500,250,stim,,"<div class = centerbox><div class = stroop-stim style = ""color:blue"">BLUE</div></div>","66,71,82",1500,test,,,congruent,TRUE,66,,,500,blue,blue,-1,-1,poldrack-single-stim,479,569696,0.0-478.0,dfdbd621-d685-432c-ab1f-8f57011179f9,,500,500,fixation,,<div class = centerbox><div class = fixation>+</div></div>,none,500,test,,,,,,,,,,,565,82,poldrack-categorize,480,572207,0.0-479.0,dfdbd621-d685-432c-ab1f-8f57011179f9,,1500,250,stim,,"<div class = centerbox><div class = stroop-stim style = ""color:red"">RED</div></div>","66,71,82",1500,test,,,congruent,TRUE,82,,,500,red,red,-1,-1,poldrack-single-stim,481,572968,0.0-480.0,dfdbd621-d685-432c-ab1f-8f57011179f9,,500,500,fixation,,<div class = centerbox><div class = fixation>+</div></div>,none,500,test,,,,,,,,,,,763,71,poldrack-categorize,482,575481,0.0-481.0,dfdbd621-d685-432c-ab1f-8f57011179f9,,1500,250,stim,,"<div class = centerbox><div class = stroop-stim style = ""color:green"">BLUE</div></div>","66,71,82",1500,test,,,incongruent,TRUE,71,,,500,green,blue,-1,-1,poldrack-single-stim,483,576242,0.0-482.0,dfdbd621-d685-432c-ab1f-8f57011179f9,,500,500,fixation,,<div class = centerbox><div class = fixation>+</div></div>,none,500,test,,,,,,,,,,,1009,66,poldrack-categorize,484,578749,0.0-483.0,dfdbd621-d685-432c-ab1f-8f57011179f9,,1500,250,stim,,"<div class = centerbox><div class = stroop-stim style = ""color:blue"">RED</div></div>","66,71,82",1500,test,,,incongruent,TRUE,66,,,500,blue,red,-1,-1,poldrack-single-stim,485,579510,0.0-484.0,dfdbd621-d685-432c-ab1f-8f57011179f9,,500,500,fixation,,<div class = centerbox><div class = fixation>+</div></div>,none,500,test,,,,,,,,,,,820,66,poldrack-categorize,486,582023,0.0-485.0,dfdbd621-d685-432c-ab1f-8f57011179f9,,1500,250,stim,,"<div class = centerbox><div class = stroop-stim style = ""color:blue"">RED</div></div>","66,71,82",1500,test,,,incongruent,TRUE,66,,,500,blue,red,-1,-1,poldrack-single-stim,487,582784,0.0-486.0,dfdbd621-d685-432c-ab1f-8f57011179f9,,500,500,fixation,,<div class = centerbox><div class = fixation>+</div></div>,none,500,test,,,,,,,,,,,1178,82,poldrack-categorize,488,585297,0.0-487.0,dfdbd621-d685-432c-ab1f-8f57011179f9,,1500,250,stim,,"<div class = centerbox><div class = stroop-stim style = ""color:red"">GREEN</div></div>","66,71,82",1500,test,,,incongruent,TRUE,82,,,500,red,green,-1,-1,poldrack-single-stim,489,586058,0.0-488.0,dfdbd621-d685-432c-ab1f-8f57011179f9,,500,500,fixation,,<div class = centerbox><div class = fixation>+</div></div>,none,500,test,,,,,,,,,,,-1,-1,poldrack-categorize,490,588571,0.0-489.0,dfdbd621-d685-432c-ab1f-8f57011179f9,,1500,250,stim,,"<div class = centerbox><div class = stroop-stim style = ""color:green"">GREEN</div></div>","66,71,82",1500,test,,,congruent,FALSE,71,,,500,green,green,-1,-1,poldrack-single-stim,491,589332,0.0-490.0,dfdbd621-d685-432c-ab1f-8f57011179f9,,500,500,fixation,,<div class = centerbox><div class = fixation>+</div></div>,none,500,test,,,,,,,,,,,622,71,poldrack-categorize,492,591845,0.0-491.0,dfdbd621-d685-432c-ab1f-8f57011179f9,,1500,250,stim,,"<div class = centerbox><div class = stroop-stim style = ""color:green"">RED</div></div>","66,71,82",1500,test,,,incongruent,TRUE,71,,,500,green,red,-1,-1,poldrack-single-stim,493,592600,0.0-492.0,dfdbd621-d685-432c-ab1f-8f57011179f9,,500,500,fixation,,<div class = centerbox><div class = fixation>+</div></div>,none,500,test,,,,,,,,,,,354,71,poldrack-categorize,494,595113,0.0-493.0,dfdbd621-d685-432c-ab1f-8f57011179f9,,1500,250,stim,,"<div class = centerbox><div class = stroop-stim style = ""color:green"">GREEN</div></div>","66,71,82",1500,test,,,congruent,TRUE,71,,,500,green,green,-1,-1,poldrack-single-stim,495,595874,0.0-494.0,dfdbd621-d685-432c-ab1f-8f57011179f9,,500,500,fixation,,<div class = centerbox><div class = fixation>+</div></div>,none,500,test,,,,,,,,,,,688,66,poldrack-categorize,496,598387,0.0-495.0,dfdbd621-d685-432c-ab1f-8f57011179f9,,1500,250,stim,,"<div class = centerbox><div class = stroop-stim style = ""color:blue"">BLUE</div></div>","66,71,82",1500,test,,,congruent,TRUE,66,,,500,blue,blue,-1,-1,poldrack-single-stim,497,599148,0.0-496.0,dfdbd621-d685-432c-ab1f-8f57011179f9,,500,500,fixation,,<div class = centerbox><div class = fixation>+</div></div>,none,500,test,,,,,,,,,,,582,66,poldrack-categorize,498,601661,0.0-497.0,dfdbd621-d685-432c-ab1f-8f57011179f9,,1500,250,stim,,"<div class = centerbox><div class = stroop-stim style = ""color:blue"">RED</div></div>","66,71,82",1500,test,,,incongruent,TRUE,66,,,500,blue,red,-1,-1,poldrack-single-stim,499,602422,0.0-498.0,dfdbd621-d685-432c-ab1f-8f57011179f9,,500,500,fixation,,<div class = centerbox><div class = fixation>+</div></div>,none,500,test,,,,,,,,,,,531,82,poldrack-categorize,500,604935,0.0-499.0,dfdbd621-d685-432c-ab1f-8f57011179f9,,1500,250,stim,,"<div class = centerbox><div class = stroop-stim style = ""color:red"">BLUE</div></div>","66,71,82",1500,test,,,incongruent,TRUE,82,,,500,red,blue,-1,-1,poldrack-single-stim,501,605696,0.0-500.0,dfdbd621-d685-432c-ab1f-8f57011179f9,,500,500,fixation,,<div class = centerbox><div class = fixation>+</div></div>,none,500,test,,,,,,,,,,,778,66,poldrack-categorize,502,608209,0.0-501.0,dfdbd621-d685-432c-ab1f-8f57011179f9,,1500,250,stim,,"<div class = centerbox><div class = stroop-stim style = ""color:blue"">GREEN</div></div>","66,71,82",1500,test,,,incongruent,TRUE,66,,,500,blue,green,-1,-1,poldrack-single-stim,503,608970,0.0-502.0,dfdbd621-d685-432c-ab1f-8f57011179f9,,500,500,fixation,,<div class = centerbox><div class = fixation>+</div></div>,none,500,test,,,,,,,,,,,624,82,poldrack-categorize,504,611483,0.0-503.0,dfdbd621-d685-432c-ab1f-8f57011179f9,,1500,250,stim,,"<div class = centerbox><div class = stroop-stim style = ""color:red"">BLUE</div></div>","66,71,82",1500,test,,,incongruent,TRUE,82,,,500,red,blue,-1,-1,poldrack-single-stim,505,612244,0.0-504.0,dfdbd621-d685-432c-ab1f-8f57011179f9,,500,500,fixation,,<div class = centerbox><div class = fixation>+</div></div>,none,500,test,,,,,,,,,,,550,82,poldrack-categorize,506,614757,0.0-505.0,dfdbd621-d685-432c-ab1f-8f57011179f9,,1500,250,stim,,"<div class = centerbox><div class = stroop-stim style = ""color:red"">RED</div></div>","66,71,82",1500,test,,,congruent,TRUE,82,,,500,red,red,-1,-1,poldrack-single-stim,507,615518,0.0-506.0,dfdbd621-d685-432c-ab1f-8f57011179f9,,500,500,fixation,,<div class = centerbox><div class = fixation>+</div></div>,none,500,test,,,,,,,,,,,756,66,poldrack-categorize,508,618031,0.0-507.0,dfdbd621-d685-432c-ab1f-8f57011179f9,,1500,250,stim,,"<div class = centerbox><div class = stroop-stim style = ""color:blue"">GREEN</div></div>","66,71,82",1500,test,,,incongruent,TRUE,66,,,500,blue,green,-1,-1,poldrack-single-stim,509,618792,0.0-508.0,dfdbd621-d685-432c-ab1f-8f57011179f9,,500,500,fixation,,<div class = centerbox><div class = fixation>+</div></div>,none,500,test,,,,,,,,,,,778,82,poldrack-categorize,510,621305,0.0-509.0,dfdbd621-d685-432c-ab1f-8f57011179f9,,1500,250,stim,,"<div class = centerbox><div class = stroop-stim style = ""color:red"">GREEN</div></div>","66,71,82",1500,test,,,incongruent,TRUE,82,,,500,red,green,-1,-1,poldrack-single-stim,511,622066,0.0-510.0,dfdbd621-d685-432c-ab1f-8f57011179f9,,500,500,fixation,,<div class = centerbox><div class = fixation>+</div></div>,none,500,test,,,,,,,,,,,-1,-1,poldrack-categorize,512,624575,0.0-511.0,dfdbd621-d685-432c-ab1f-8f57011179f9,,1500,250,stim,,"<div class = centerbox><div class = stroop-stim style = ""color:blue"">BLUE</div></div>","66,71,82",1500,test,,,congruent,FALSE,66,,,500,blue,blue,-1,-1,poldrack-single-stim,513,625330,0.0-512.0,dfdbd621-d685-432c-ab1f-8f57011179f9,,500,500,fixation,,<div class = centerbox><div class = fixation>+</div></div>,none,500,test,,,,,,,,,,,952,82,poldrack-categorize,514,627842,0.0-513.0,dfdbd621-d685-432c-ab1f-8f57011179f9,,1500,250,stim,,"<div class = centerbox><div class = stroop-stim style = ""color:red"">GREEN</div></div>","66,71,82",1500,test,,,incongruent,TRUE,82,,,500,red,green,-1,-1,poldrack-single-stim,515,628602,0.0-514.0,dfdbd621-d685-432c-ab1f-8f57011179f9,,500,500,fixation,,<div class = centerbox><div class = fixation>+</div></div>,none,500,test,,,,,,,,,,,544,66,poldrack-categorize,516,631116,0.0-515.0,dfdbd621-d685-432c-ab1f-8f57011179f9,,1500,250,stim,,"<div class = centerbox><div class = stroop-stim style = ""color:blue"">GREEN</div></div>","66,71,82",1500,test,,,incongruent,TRUE,66,,,500,blue,green,-1,-1,poldrack-single-stim,517,631876,0.0-516.0,dfdbd621-d685-432c-ab1f-8f57011179f9,,500,500,fixation,,<div class = centerbox><div class = fixation>+</div></div>,none,500,test,,,,,,,,,,,638,71,poldrack-categorize,518,634390,0.0-517.0,dfdbd621-d685-432c-ab1f-8f57011179f9,,1500,250,stim,,"<div class = centerbox><div class = stroop-stim style = ""color:green"">GREEN</div></div>","66,71,82",1500,test,,,congruent,TRUE,71,,,500,green,green,-1,-1,poldrack-single-stim,519,635150,0.0-518.0,dfdbd621-d685-432c-ab1f-8f57011179f9,,500,500,fixation,,<div class = centerbox><div class = fixation>+</div></div>,none,500,test,,,,,,,,,,,660,82,poldrack-categorize,520,637660,0.0-519.0,dfdbd621-d685-432c-ab1f-8f57011179f9,,1500,250,stim,,"<div class = centerbox><div class = stroop-stim style = ""color:red"">RED</div></div>","66,71,82",1500,test,,,congruent,TRUE,82,,,500,red,red,-1,-1,poldrack-single-stim,521,638418,0.0-520.0,dfdbd621-d685-432c-ab1f-8f57011179f9,,500,500,fixation,,<div class = centerbox><div class = fixation>+</div></div>,none,500,test,,,,,,,,,,,559,82,poldrack-categorize,522,640932,0.0-521.0,dfdbd621-d685-432c-ab1f-8f57011179f9,,1500,250,stim,,"<div class = centerbox><div class = stroop-stim style = ""color:red"">GREEN</div></div>","66,71,82",1500,test,,,incongruent,TRUE,82,,,500,red,green,-1,-1,poldrack-single-stim,523,641693,0.0-522.0,dfdbd621-d685-432c-ab1f-8f57011179f9,,500,500,fixation,,<div class = centerbox><div class = fixation>+</div></div>,none,500,test,,,,,,,,,,,461,82,poldrack-categorize,524,644206,0.0-523.0,dfdbd621-d685-432c-ab1f-8f57011179f9,,1500,250,stim,,"<div class = centerbox><div class = stroop-stim style = ""color:red"">RED</div></div>","66,71,82",1500,test,,,congruent,TRUE,82,,,500,red,red,-1,-1,poldrack-single-stim,525,644964,0.0-524.0,dfdbd621-d685-432c-ab1f-8f57011179f9,,500,500,fixation,,<div class = centerbox><div class = fixation>+</div></div>,none,500,test,,,,,,,,,,,1034,71,poldrack-categorize,526,647470,0.0-525.0,dfdbd621-d685-432c-ab1f-8f57011179f9,,1500,250,stim,,"<div class = centerbox><div class = stroop-stim style = ""color:green"">BLUE</div></div>","66,71,82",1500,test,,,incongruent,TRUE,71,,,500,green,blue,-1,-1,poldrack-single-stim,527,648229,0.0-526.0,dfdbd621-d685-432c-ab1f-8f57011179f9,,500,500,fixation,,<div class = centerbox><div class = fixation>+</div></div>,none,500,test,,,,,,,,,,,749,82,poldrack-categorize,528,650742,0.0-527.0,dfdbd621-d685-432c-ab1f-8f57011179f9,,1500,250,stim,,"<div class = centerbox><div class = stroop-stim style = ""color:red"">RED</div></div>","66,71,82",1500,test,,,congruent,TRUE,82,,,500,red,red,-1,-1,poldrack-single-stim,529,651503,0.0-528.0,dfdbd621-d685-432c-ab1f-8f57011179f9,,500,500,fixation,,<div class = centerbox><div class = fixation>+</div></div>,none,500,test,,,,,,,,,,,932,66,poldrack-categorize,530,654016,0.0-529.0,dfdbd621-d685-432c-ab1f-8f57011179f9,,1500,250,stim,,"<div class = centerbox><div class = stroop-stim style = ""color:blue"">GREEN</div></div>","66,71,82",1500,test,,,incongruent,TRUE,66,,,500,blue,green,-1,-1,poldrack-single-stim,531,654777,0.0-530.0,dfdbd621-d685-432c-ab1f-8f57011179f9,,500,500,fixation,,<div class = centerbox><div class = fixation>+</div></div>,none,500,test,,,,,,,,,,,680,82,poldrack-categorize,532,657287,0.0-531.0,dfdbd621-d685-432c-ab1f-8f57011179f9,,1500,250,stim,,"<div class = centerbox><div class = stroop-stim style = ""color:red"">BLUE</div></div>","66,71,82",1500,test,,,incongruent,TRUE,82,,,500,red,blue,-1,-1,poldrack-single-stim,533,658045,0.0-532.0,dfdbd621-d685-432c-ab1f-8f57011179f9,,500,500,fixation,,<div class = centerbox><div class = fixation>+</div></div>,none,500,test,,,,,,,,,,,813,82,poldrack-categorize,534,660558,0.0-533.0,dfdbd621-d685-432c-ab1f-8f57011179f9,,1500,250,stim,,"<div class = centerbox><div class = stroop-stim style = ""color:red"">RED</div></div>","66,71,82",1500,test,,,congruent,TRUE,82,,,500,red,red,-1,-1,poldrack-single-stim,535,661319,0.0-534.0,dfdbd621-d685-432c-ab1f-8f57011179f9,,500,500,fixation,,<div class = centerbox><div class = fixation>+</div></div>,none,500,test,,,,,,,,,,,466,82,poldrack-categorize,536,663832,0.0-535.0,dfdbd621-d685-432c-ab1f-8f57011179f9,,1500,250,stim,,"<div class = centerbox><div class = stroop-stim style = ""color:red"">RED</div></div>","66,71,82",1500,test,,,congruent,TRUE,82,,,500,red,red,-1,-1,poldrack-single-stim,537,664593,0.0-536.0,dfdbd621-d685-432c-ab1f-8f57011179f9,,500,500,fixation,,<div class = centerbox><div class = fixation>+</div></div>,none,500,test,,,,,,,,,,,840,71,poldrack-categorize,538,667106,0.0-537.0,dfdbd621-d685-432c-ab1f-8f57011179f9,,1500,250,stim,,"<div class = centerbox><div class = stroop-stim style = ""color:green"">GREEN</div></div>","66,71,82",1500,test,,,congruent,TRUE,71,,,500,green,green,-1,-1,poldrack-single-stim,539,667867,0.0-538.0,dfdbd621-d685-432c-ab1f-8f57011179f9,,500,500,fixation,,<div class = centerbox><div class = fixation>+</div></div>,none,500,test,,,,,,,,,,,654,82,poldrack-categorize,540,670380,0.0-539.0,dfdbd621-d685-432c-ab1f-8f57011179f9,,1500,250,stim,,"<div class = centerbox><div class = stroop-stim style = ""color:red"">RED</div></div>","66,71,82",1500,test,,,congruent,TRUE,82,,,500,red,red,-1,-1,poldrack-single-stim,541,671141,0.0-540.0,dfdbd621-d685-432c-ab1f-8f57011179f9,,500,500,fixation,,<div class = centerbox><div class = fixation>+</div></div>,none,500,test,,,,,,,,,,,477,82,poldrack-categorize,542,673654,0.0-541.0,dfdbd621-d685-432c-ab1f-8f57011179f9,,1500,250,stim,,"<div class = centerbox><div class = stroop-stim style = ""color:red"">RED</div></div>","66,71,82",1500,test,,,congruent,TRUE,82,,,500,red,red,-1,-1,poldrack-single-stim,543,674415,0.0-542.0,dfdbd621-d685-432c-ab1f-8f57011179f9,,500,500,fixation,,<div class = centerbox><div class = fixation>+</div></div>,none,500,test,,,,,,,,,,,474,82,poldrack-categorize,544,676928,0.0-543.0,dfdbd621-d685-432c-ab1f-8f57011179f9,,1500,250,stim,,"<div class = centerbox><div class = stroop-stim style = ""color:red"">RED</div></div>","66,71,82",1500,test,,,congruent,TRUE,82,,,500,red,red,-1,-1,poldrack-single-stim,545,677689,0.0-544.0,dfdbd621-d685-432c-ab1f-8f57011179f9,,500,500,fixation,,<div class = centerbox><div class = fixation>+</div></div>,none,500,test,,,,,,,,,,,560,71,poldrack-categorize,546,680202,0.0-545.0,dfdbd621-d685-432c-ab1f-8f57011179f9,,1500,250,stim,,"<div class = centerbox><div class = stroop-stim style = ""color:green"">GREEN</div></div>","66,71,82",1500,test,,,congruent,TRUE,71,,,500,green,green,-1,-1,poldrack-single-stim,547,680963,0.0-546.0,dfdbd621-d685-432c-ab1f-8f57011179f9,,500,500,fixation,,<div class = centerbox><div class = fixation>+</div></div>,none,500,test,,,,,,,,,,,863,66,poldrack-categorize,548,683476,0.0-547.0,dfdbd621-d685-432c-ab1f-8f57011179f9,,1500,250,stim,,"<div class = centerbox><div class = stroop-stim style = ""color:blue"">RED</div></div>","66,71,82",1500,test,,,incongruent,TRUE,66,,,500,blue,red,-1,-1,poldrack-single-stim,549,684231,0.0-548.0,dfdbd621-d685-432c-ab1f-8f57011179f9,,500,500,fixation,,<div class = centerbox><div class = fixation>+</div></div>,none,500,test,,,,,,,,,,,650,66,poldrack-categorize,550,686744,0.0-549.0,dfdbd621-d685-432c-ab1f-8f57011179f9,,1500,250,stim,,"<div class = centerbox><div class = stroop-stim style = ""color:blue"">GREEN</div></div>","66,71,82",1500,test,,,incongruent,TRUE,66,,,500,blue,green,-1,-1,poldrack-single-stim,551,687499,0.0-550.0,dfdbd621-d685-432c-ab1f-8f57011179f9,,500,500,fixation,,<div class = centerbox><div class = fixation>+</div></div>,none,500,test,,,,,,,,,,,942,82,poldrack-categorize,552,690013,0.0-551.0,dfdbd621-d685-432c-ab1f-8f57011179f9,,1500,250,stim,,"<div class = centerbox><div class = stroop-stim style = ""color:green"">RED</div></div>","66,71,82",1500,test,,,incongruent,FALSE,71,,,500,green,red,-1,-1,poldrack-single-stim,553,690773,0.0-552.0,dfdbd621-d685-432c-ab1f-8f57011179f9,,500,500,fixation,,<div class = centerbox><div class = fixation>+</div></div>,none,500,test,,,,,,,,,,,1229,66,poldrack-categorize,554,693287,0.0-553.0,dfdbd621-d685-432c-ab1f-8f57011179f9,,1500,250,stim,,"<div class = centerbox><div class = stroop-stim style = ""color:blue"">BLUE</div></div>","66,71,82",1500,test,,,congruent,TRUE,66,,,500,blue,blue,-1,-1,poldrack-single-stim,555,694047,0.0-554.0,dfdbd621-d685-432c-ab1f-8f57011179f9,,500,500,fixation,,<div class = centerbox><div class = fixation>+</div></div>,none,500,test,,,,,,,,,,,682,66,poldrack-categorize,556,696557,0.0-555.0,dfdbd621-d685-432c-ab1f-8f57011179f9,,1500,250,stim,,"<div class = centerbox><div class = stroop-stim style = ""color:blue"">RED</div></div>","66,71,82",1500,test,,,incongruent,TRUE,66,,,500,blue,red,-1,-1,poldrack-single-stim,557,697315,0.0-556.0,dfdbd621-d685-432c-ab1f-8f57011179f9,,500,500,fixation,,<div class = centerbox><div class = fixation>+</div></div>,none,500,test,,,,,,,,,,,518,66,poldrack-categorize,558,699829,0.0-557.0,dfdbd621-d685-432c-ab1f-8f57011179f9,,1500,250,stim,,"<div class = centerbox><div class = stroop-stim style = ""color:blue"">BLUE</div></div>","66,71,82",1500,test,,,congruent,TRUE,66,,,500,blue,blue,-1,-1,poldrack-single-stim,559,700589,0.0-558.0,dfdbd621-d685-432c-ab1f-8f57011179f9,,500,500,fixation,,<div class = centerbox><div class = fixation>+</div></div>,none,500,test,,,,,,,,,,,1003,82,poldrack-categorize,560,703103,0.0-559.0,dfdbd621-d685-432c-ab1f-8f57011179f9,,1500,250,stim,,"<div class = centerbox><div class = stroop-stim style = ""color:red"">BLUE</div></div>","66,71,82",1500,test,,,incongruent,TRUE,82,,,500,red,blue,-1,-1,poldrack-single-stim,561,703864,0.0-560.0,dfdbd621-d685-432c-ab1f-8f57011179f9,,500,500,fixation,,<div class = centerbox><div class = fixation>+</div></div>,none,500,test,,,,,,,,,,,715,71,poldrack-categorize,562,706377,0.0-561.0,dfdbd621-d685-432c-ab1f-8f57011179f9,,1500,250,stim,,"<div class = centerbox><div class = stroop-stim style = ""color:green"">GREEN</div></div>","66,71,82",1500,test,,,congruent,TRUE,71,,,500,green,green,-1,-1,poldrack-single-stim,563,707137,0.0-562.0,dfdbd621-d685-432c-ab1f-8f57011179f9,,500,500,fixation,,<div class = centerbox><div class = fixation>+</div></div>,none,500,test,,,,,,,,,,,978,66,poldrack-categorize,564,709651,0.0-563.0,dfdbd621-d685-432c-ab1f-8f57011179f9,,1500,250,stim,,"<div class = centerbox><div class = stroop-stim style = ""color:blue"">RED</div></div>","66,71,82",1500,test,,,incongruent,TRUE,66,,,500,blue,red,-1,-1,poldrack-single-stim,565,710411,0.0-564.0,dfdbd621-d685-432c-ab1f-8f57011179f9,,500,500,fixation,,<div class = centerbox><div class = fixation>+</div></div>,none,500,test,,,,,,,,,,,614,66,poldrack-categorize,566,712921,0.0-565.0,dfdbd621-d685-432c-ab1f-8f57011179f9,,1500,250,stim,,"<div class = centerbox><div class = stroop-stim style = ""color:blue"">BLUE</div></div>","66,71,82",1500,test,,,congruent,TRUE,66,,,500,blue,blue,-1,-1,poldrack-single-stim,567,713679,0.0-566.0,dfdbd621-d685-432c-ab1f-8f57011179f9,,500,500,fixation,,<div class = centerbox><div class = fixation>+</div></div>,none,500,test,,,,,,,,,,,594,82,poldrack-categorize,568,716193,0.0-567.0,dfdbd621-d685-432c-ab1f-8f57011179f9,,1500,250,stim,,"<div class = centerbox><div class = stroop-stim style = ""color:red"">RED</div></div>","66,71,82",1500,test,,,congruent,TRUE,82,,,500,red,red,-1,-1,poldrack-single-stim,569,716954,0.0-568.0,dfdbd621-d685-432c-ab1f-8f57011179f9,,500,500,fixation,,<div class = centerbox><div class = fixation>+</div></div>,none,500,test,,,,,,,,,,,881,82,poldrack-categorize,570,719467,0.0-569.0,dfdbd621-d685-432c-ab1f-8f57011179f9,,1500,250,stim,,"<div class = centerbox><div class = stroop-stim style = ""color:red"">GREEN</div></div>","66,71,82",1500,test,,,incongruent,TRUE,82,,,500,red,green,-1,-1,poldrack-single-stim,571,720228,0.0-570.0,dfdbd621-d685-432c-ab1f-8f57011179f9,,500,500,fixation,,<div class = centerbox><div class = fixation>+</div></div>,none,500,test,,,,,,,,,,,494,66,poldrack-categorize,572,722741,0.0-571.0,dfdbd621-d685-432c-ab1f-8f57011179f9,,1500,250,stim,,"<div class = centerbox><div class = stroop-stim style = ""color:blue"">BLUE</div></div>","66,71,82",1500,test,,,congruent,TRUE,66,,,500,blue,blue,-1,-1,poldrack-single-stim,573,723502,0.0-572.0,dfdbd621-d685-432c-ab1f-8f57011179f9,,500,500,fixation,,<div class = centerbox><div class = fixation>+</div></div>,none,500,test,,,,,,,,,,,516,66,poldrack-categorize,574,726015,0.0-573.0,dfdbd621-d685-432c-ab1f-8f57011179f9,,1500,250,stim,,"<div class = centerbox><div class = stroop-stim style = ""color:blue"">RED</div></div>","66,71,82",1500,test,,,incongruent,TRUE,66,,,500,blue,red,-1,-1,poldrack-single-stim,575,726775,0.0-574.0,dfdbd621-d685-432c-ab1f-8f57011179f9,,500,500,fixation,,<div class = centerbox><div class = fixation>+</div></div>,none,500,test,,,,,,,,,,,538,66,poldrack-categorize,576,729289,0.0-575.0,dfdbd621-d685-432c-ab1f-8f57011179f9,,1500,250,stim,,"<div class = centerbox><div class = stroop-stim style = ""color:blue"">BLUE</div></div>","66,71,82",1500,test,,,congruent,TRUE,66,,,500,blue,blue,-1,-1,poldrack-single-stim,577,730049,0.0-576.0,dfdbd621-d685-432c-ab1f-8f57011179f9,,500,500,fixation,,<div class = centerbox><div class = fixation>+</div></div>,none,500,test,,,,,,,,,,,1232,71,poldrack-categorize,578,732563,0.0-577.0,dfdbd621-d685-432c-ab1f-8f57011179f9,,1500,250,stim,,"<div class = centerbox><div class = stroop-stim style = ""color:green"">BLUE</div></div>","66,71,82",1500,test,,,incongruent,TRUE,71,,,500,green,blue,-1,-1,poldrack-single-stim,579,733318,0.0-578.0,dfdbd621-d685-432c-ab1f-8f57011179f9,,500,500,fixation,,<div class = centerbox><div class = fixation>+</div></div>,none,500,test,,,,,,,,,,,1043,66,poldrack-categorize,580,735831,0.0-579.0,dfdbd621-d685-432c-ab1f-8f57011179f9,,1500,250,stim,,"<div class = centerbox><div class = stroop-stim style = ""color:blue"">BLUE</div></div>","66,71,82",1500,test,,,congruent,TRUE,66,,,500,blue,blue,-1,-1,poldrack-single-stim,581,736592,0.0-580.0,dfdbd621-d685-432c-ab1f-8f57011179f9,,500,500,fixation,,<div class = centerbox><div class = fixation>+</div></div>,none,500,test,,,,,,,,,,,1073,71,poldrack-categorize,582,739105,0.0-581.0,dfdbd621-d685-432c-ab1f-8f57011179f9,,1500,250,stim,,"<div class = centerbox><div class = stroop-stim style = ""color:green"">GREEN</div></div>","66,71,82",1500,test,,,congruent,TRUE,71,,,500,green,green,-1,-1,poldrack-single-stim,583,739866,0.0-582.0,dfdbd621-d685-432c-ab1f-8f57011179f9,,500,500,fixation,,<div class = centerbox><div class = fixation>+</div></div>,none,500,test,,,,,,,,,,,703,71,poldrack-categorize,584,742379,0.0-583.0,dfdbd621-d685-432c-ab1f-8f57011179f9,,1500,250,stim,,"<div class = centerbox><div class = stroop-stim style = ""color:green"">GREEN</div></div>","66,71,82",1500,test,,,congruent,TRUE,71,,,500,green,green,-1,-1,poldrack-single-stim,585,743134,0.0-584.0,dfdbd621-d685-432c-ab1f-8f57011179f9,,500,500,fixation,,<div class = centerbox><div class = fixation>+</div></div>,none,500,test,,,,,,,,,,,819,66,poldrack-categorize,586,745647,0.0-585.0,dfdbd621-d685-432c-ab1f-8f57011179f9,,1500,250,stim,,"<div class = centerbox><div class = stroop-stim style = ""color:blue"">RED</div></div>","66,71,82",1500,test,,,incongruent,TRUE,66,,,500,blue,red,-1,-1,poldrack-single-stim,587,746405,0.0-586.0,dfdbd621-d685-432c-ab1f-8f57011179f9,,500,500,fixation,,<div class = centerbox><div class = fixation>+</div></div>,none,500,test,,,,,,,,,,,695,66,poldrack-categorize,588,748915,0.0-587.0,dfdbd621-d685-432c-ab1f-8f57011179f9,,1500,250,stim,,"<div class = centerbox><div class = stroop-stim style = ""color:blue"">GREEN</div></div>","66,71,82",1500,test,,,incongruent,TRUE,66,,,500,blue,green,-1,-1,poldrack-single-stim,589,749674,0.0-588.0,dfdbd621-d685-432c-ab1f-8f57011179f9,,500,500,fixation,,<div class = centerbox><div class = fixation>+</div></div>,none,500,test,,,,,,,,,,,355,66,poldrack-categorize,590,752184,0.0-589.0,dfdbd621-d685-432c-ab1f-8f57011179f9,,1500,250,stim,,"<div class = centerbox><div class = stroop-stim style = ""color:blue"">GREEN</div></div>","66,71,82",1500,test,,,incongruent,TRUE,66,,,500,blue,green,-1,-1,poldrack-single-stim,591,752944,0.0-590.0,dfdbd621-d685-432c-ab1f-8f57011179f9,,500,500,fixation,,<div class = centerbox><div class = fixation>+</div></div>,none,500,test,,,,,,,,,,,641,66,poldrack-categorize,592,755452,0.0-591.0,dfdbd621-d685-432c-ab1f-8f57011179f9,,1500,250,stim,,"<div class = centerbox><div class = stroop-stim style = ""color:blue"">BLUE</div></div>","66,71,82",1500,test,,,congruent,TRUE,66,,,500,blue,blue,-1,-1,poldrack-single-stim,593,756213,0.0-592.0,dfdbd621-d685-432c-ab1f-8f57011179f9,,500,500,fixation,,<div class = centerbox><div class = fixation>+</div></div>,none,500,test,,,,,,,,,,,917,71,poldrack-categorize,594,758726,0.0-593.0,dfdbd621-d685-432c-ab1f-8f57011179f9,,1500,250,stim,,"<div class = centerbox><div class = stroop-stim style = ""color:green"">RED</div></div>","66,71,82",1500,test,,,incongruent,TRUE,71,,,500,green,red,-1,-1,poldrack-single-stim,595,759486,0.0-594.0,dfdbd621-d685-432c-ab1f-8f57011179f9,,500,500,fixation,,<div class = centerbox><div class = fixation>+</div></div>,none,500,test,,,,,,,,,,,755,82,poldrack-categorize,596,762000,0.0-595.0,dfdbd621-d685-432c-ab1f-8f57011179f9,,1500,250,stim,,"<div class = centerbox><div class = stroop-stim style = ""color:red"">RED</div></div>","66,71,82",1500,test,,,congruent,TRUE,82,,,500,red,red,-1,-1,poldrack-single-stim,597,762760,0.0-596.0,dfdbd621-d685-432c-ab1f-8f57011179f9,,500,500,fixation,,<div class = centerbox><div class = fixation>+</div></div>,none,500,test,,,,,,,,,,,777,71,poldrack-categorize,598,765274,0.0-597.0,dfdbd621-d685-432c-ab1f-8f57011179f9,,1500,250,stim,,"<div class = centerbox><div class = stroop-stim style = ""color:green"">RED</div></div>","66,71,82",1500,test,,,incongruent,TRUE,71,,,500,green,red,-1,-1,poldrack-single-stim,599,766035,0.0-598.0,dfdbd621-d685-432c-ab1f-8f57011179f9,,500,500,fixation,,<div class = centerbox><div class = fixation>+</div></div>,none,500,test,,,,,,,,,,,783,82,poldrack-categorize,600,768548,0.0-599.0,dfdbd621-d685-432c-ab1f-8f57011179f9,,1500,250,stim,,"<div class = centerbox><div class = stroop-stim style = ""color:red"">BLUE</div></div>","66,71,82",1500,test,,,incongruent,TRUE,82,,,500,red,blue,-1,-1,poldrack-single-stim,601,769308,0.0-600.0,dfdbd621-d685-432c-ab1f-8f57011179f9,,500,500,fixation,,<div class = centerbox><div class = fixation>+</div></div>,none,500,test,,,,,,,,,,,765,82,poldrack-categorize,602,771818,0.0-601.0,dfdbd621-d685-432c-ab1f-8f57011179f9,,1500,250,stim,,"<div class = centerbox><div class = stroop-stim style = ""color:red"">RED</div></div>","66,71,82",1500,test,,,congruent,TRUE,82,,,500,red,red,-1,-1,poldrack-single-stim,603,772577,0.0-602.0,dfdbd621-d685-432c-ab1f-8f57011179f9,,500,500,fixation,,<div class = centerbox><div class = fixation>+</div></div>,none,500,test,,,,,,,,,,,993,71,poldrack-categorize,604,775084,0.0-603.0,dfdbd621-d685-432c-ab1f-8f57011179f9,,1500,250,stim,,"<div class = centerbox><div class = stroop-stim style = ""color:green"">GREEN</div></div>","66,71,82",1500,test,,,congruent,TRUE,71,,,500,green,green,-1,-1,poldrack-single-stim,605,775845,0.0-604.0,dfdbd621-d685-432c-ab1f-8f57011179f9,,500,500,fixation,,<div class = centerbox><div class = fixation>+</div></div>,none,500,test,,,,,,,,,,,748,71,poldrack-categorize,606,778358,0.0-605.0,dfdbd621-d685-432c-ab1f-8f57011179f9,,1500,250,stim,,"<div class = centerbox><div class = stroop-stim style = ""color:green"">RED</div></div>","66,71,82",1500,test,,,incongruent,TRUE,71,,,500,green,red,-1,-1,poldrack-single-stim,607,779115,0.0-606.0,dfdbd621-d685-432c-ab1f-8f57011179f9,,500,500,fixation,,<div class = centerbox><div class = fixation>+</div></div>,none,500,test,,,,,,,,,,,767,71,poldrack-categorize,608,781625,0.0-607.0,dfdbd621-d685-432c-ab1f-8f57011179f9,,1500,250,stim,,"<div class = centerbox><div class = stroop-stim style = ""color:green"">BLUE</div></div>","66,71,82",1500,test,,,incongruent,TRUE,71,,,500,green,blue,-1,-1,poldrack-single-stim,609,782381,0.0-608.0,dfdbd621-d685-432c-ab1f-8f57011179f9,,500,500,fixation,,<div class = centerbox><div class = fixation>+</div></div>,none,500,test,,,,,,,,,,,780,71,poldrack-categorize,610,784895,0.0-609.0,dfdbd621-d685-432c-ab1f-8f57011179f9,,1500,250,stim,,"<div class = centerbox><div class = stroop-stim style = ""color:green"">BLUE</div></div>","66,71,82",1500,test,,,incongruent,TRUE,71,,,500,green,blue,-1,-1,poldrack-single-stim,611,785655,0.0-610.0,dfdbd621-d685-432c-ab1f-8f57011179f9,,500,500,fixation,,<div class = centerbox><div class = fixation>+</div></div>,none,500,test,,,,,,,,,,,652,82,poldrack-categorize,612,788169,0.0-611.0,dfdbd621-d685-432c-ab1f-8f57011179f9,,1500,250,stim,,"<div class = centerbox><div class = stroop-stim style = ""color:red"">RED</div></div>","66,71,82",1500,test,,,congruent,TRUE,82,,,500,red,red,-1,-1,poldrack-single-stim,613,788929,0.0-612.0,dfdbd621-d685-432c-ab1f-8f57011179f9,,500,500,fixation,,<div class = centerbox><div class = fixation>+</div></div>,none,500,test,,,,,,,,,,,720,71,poldrack-categorize,614,791443,0.0-613.0,dfdbd621-d685-432c-ab1f-8f57011179f9,,1500,250,stim,,"<div class = centerbox><div class = stroop-stim style = ""color:green"">GREEN</div></div>","66,71,82",1500,test,,,congruent,TRUE,71,,,500,green,green,-1,-1,poldrack-single-stim,615,792203,0.0-614.0,dfdbd621-d685-432c-ab1f-8f57011179f9,,500,500,fixation,,<div class = centerbox><div class = fixation>+</div></div>,none,500,test,,,,,,,,,,,453,71,poldrack-categorize,616,794717,0.0-615.0,dfdbd621-d685-432c-ab1f-8f57011179f9,,1500,250,stim,,"<div class = centerbox><div class = stroop-stim style = ""color:green"">BLUE</div></div>","66,71,82",1500,test,,,incongruent,TRUE,71,,,500,green,blue,-1,-1,poldrack-single-stim,617,795477,0.0-616.0,dfdbd621-d685-432c-ab1f-8f57011179f9,,500,500,fixation,,<div class = centerbox><div class = fixation>+</div></div>,none,500,test,,,,,,,,,,,908,71,poldrack-categorize,618,797991,0.0-617.0,dfdbd621-d685-432c-ab1f-8f57011179f9,,1500,250,stim,,"<div class = centerbox><div class = stroop-stim style = ""color:green"">GREEN</div></div>","66,71,82",1500,test,,,congruent,TRUE,71,,,500,green,green,-1,-1,poldrack-single-stim,619,798747,0.0-618.0,dfdbd621-d685-432c-ab1f-8f57011179f9,,500,500,fixation,,<div class = centerbox><div class = fixation>+</div></div>,none,500,test,,,,,,,,,,,656,66,poldrack-categorize,620,801259,0.0-619.0,dfdbd621-d685-432c-ab1f-8f57011179f9,,1500,250,stim,,"<div class = centerbox><div class = stroop-stim style = ""color:blue"">GREEN</div></div>","66,71,82",1500,test,,,incongruent,TRUE,66,,,500,blue,green,-1,-1,poldrack-single-stim,621,802019,0.0-620.0,dfdbd621-d685-432c-ab1f-8f57011179f9,,500,500,fixation,,<div class = centerbox><div class = fixation>+</div></div>,none,500,test,,,,,,,,,,,663,71,poldrack-categorize,622,804533,0.0-621.0,dfdbd621-d685-432c-ab1f-8f57011179f9,,1500,250,stim,,"<div class = centerbox><div class = stroop-stim style = ""color:green"">GREEN</div></div>","66,71,82",1500,test,,,congruent,TRUE,71,,,500,green,green,-1,-1,poldrack-single-stim,623,805293,0.0-622.0,dfdbd621-d685-432c-ab1f-8f57011179f9,,500,500,fixation,,<div class = centerbox><div class = fixation>+</div></div>,none,500,test,,,,,,,,,,,875,66,poldrack-categorize,624,807805,0.0-623.0,dfdbd621-d685-432c-ab1f-8f57011179f9,,1500,250,stim,,"<div class = centerbox><div class = stroop-stim style = ""color:blue"">BLUE</div></div>","66,71,82",1500,test,,,congruent,TRUE,66,,,500,blue,blue,-1,-1,poldrack-single-stim,625,808562,0.0-624.0,dfdbd621-d685-432c-ab1f-8f57011179f9,,500,500,fixation,,<div class = centerbox><div class = fixation>+</div></div>,none,500,test,,,,,,,,,,,904,82,poldrack-categorize,626,811075,0.0-625.0,dfdbd621-d685-432c-ab1f-8f57011179f9,,1500,250,stim,,"<div class = centerbox><div class = stroop-stim style = ""color:red"">BLUE</div></div>","66,71,82",1500,test,,,incongruent,TRUE,82,,,500,red,blue,-1,-1,poldrack-single-stim,627,811835,0.0-626.0,dfdbd621-d685-432c-ab1f-8f57011179f9,,500,500,fixation,,<div class = centerbox><div class = fixation>+</div></div>,none,500,test,,,,,,,,,,,485,82,poldrack-categorize,628,814349,0.0-627.0,dfdbd621-d685-432c-ab1f-8f57011179f9,,1500,250,stim,,"<div class = centerbox><div class = stroop-stim style = ""color:red"">GREEN</div></div>","66,71,82",1500,test,,,incongruent,TRUE,82,,,500,red,green,-1,-1,poldrack-single-stim,629,815110,0.0-628.0,dfdbd621-d685-432c-ab1f-8f57011179f9,,500,500,fixation,,<div class = centerbox><div class = fixation>+</div></div>,none,500,test,,,,,,,,,,,619,71,poldrack-categorize,630,817623,0.0-629.0,dfdbd621-d685-432c-ab1f-8f57011179f9,,1500,250,stim,,"<div class = centerbox><div class = stroop-stim style = ""color:green"">RED</div></div>","66,71,82",1500,test,,,incongruent,TRUE,71,,,500,green,red,-1,-1,poldrack-single-stim,631,818383,0.0-630.0,dfdbd621-d685-432c-ab1f-8f57011179f9,,500,500,fixation,,<div class = centerbox><div class = fixation>+</div></div>,none,500,test,,,,,,,,,,,402,71,poldrack-categorize,632,820897,0.0-631.0,dfdbd621-d685-432c-ab1f-8f57011179f9,,1500,250,stim,,"<div class = centerbox><div class = stroop-stim style = ""color:green"">RED</div></div>","66,71,82",1500,test,,,incongruent,TRUE,71,,,500,green,red,47645,,survey-text,633,868794,0.0-633.0,dfdbd621-d685-432c-ab1f-8f57011179f9,,,,post task questions,,,,,,,,,,,"{""Q0"":""indicate the ink color of the word shown on the screen by clicking \""r\"", \""b\"", or \""g\"" for red, blue, and green."",""Q1"":""""}",,,,,1245,13,poldrack-text,634,871041,0.0-634.0,dfdbd621-d685-432c-ab1f-8f57011179f9,<div class = centerbox><p class = center-block-text>Thanks for completing this task!</p><p class = center-block-text>Press <strong>enter</strong> to continue.</p></div>,1245,0,end,,,,,,,,,,,,stroop,,,,TRUE7117,13,text,635,878202,0.0-635.0,dfdbd621-d685-432c-ab1f-8f57011179f9,,,,,,,,,,,,,,,,,,,,