rt,key_press,trial_type,trial_index,time_elapsed,internal_node_id,subject,text,block_duration,timing_post_trial,trial_id,view_history,stimulus,possible_responses,stim_duration,exp_stage,stim_place,stim_id,condition,correct,correct_response,responses,exp_id,feedback_duration,stim_color,stim_word,credit_var14894,13,text,0,14896,0.0-0.0,8a41bab5-59fd-41d6-96c1-0edb20b09b0d,,,,,,,,,,,,,,,,,,,,1631,13,poldrack-text,389,369344,0.0-388.0-0.0,8a41bab5-59fd-41d6-96c1-0edb20b09b0d,<div class = centerbox><p class = center-block-text>Done with instructions. Press <strong>enter</strong> to continue.</p></div>,1631,0,instruction,,,,,,,,,,,,,,,,10356,,poldrack-instructions,390,379700,0.0-388.0-1.0,8a41bab5-59fd-41d6-96c1-0edb20b09b0d,,,,instruction,"[{""page_index"":0,""viewing_time"":10355}]",,,,,,,,,,,,,,,1884,13,poldrack-text,391,382591,0.0-389.0,8a41bab5-59fd-41d6-96c1-0edb20b09b0d,"<div class = centerbox><p class = block-text>We will start with a few practice trials. Remember, press the key corresponding to the <strong>ink</strong> color of the word: ""r"" for words colored red, ""b"" for words colored blue, and ""g"" for words colored green.</p><p class = block-text>Press <strong>enter</strong> to begin practice.</p></div>",1884,1000,practice_intro,,,,,,,,,,,,,,,,-1,-1,poldrack-single-stim,392,384099,0.0-390.0,8a41bab5-59fd-41d6-96c1-0edb20b09b0d,,500,500,fixation,,<div class = centerbox><div class = fixation>+</div></div>,none,500,practice,,,,,,,,,,,846,82,poldrack-categorize,393,386606,0.0-391.0,8a41bab5-59fd-41d6-96c1-0edb20b09b0d,,1500,250,stim,,"<div class = centerbox><div class = stroop-stim style = ""color:red"">RED</div></div>","66,71,82",1500,practice,,,congruent,TRUE,82,,,500,red,red,-1,-1,poldrack-single-stim,394,387367,0.0-392.0,8a41bab5-59fd-41d6-96c1-0edb20b09b0d,,500,500,fixation,,<div class = centerbox><div class = fixation>+</div></div>,none,500,practice,,,,,,,,,,,838,66,poldrack-categorize,395,389880,0.0-393.0,8a41bab5-59fd-41d6-96c1-0edb20b09b0d,,1500,250,stim,,"<div class = centerbox><div class = stroop-stim style = ""color:blue"">BLUE</div></div>","66,71,82",1500,practice,,,congruent,TRUE,66,,,500,blue,blue,-1,-1,poldrack-single-stim,396,390639,0.0-394.0,8a41bab5-59fd-41d6-96c1-0edb20b09b0d,,500,500,fixation,,<div class = centerbox><div class = fixation>+</div></div>,none,500,practice,,,,,,,,,,,713,82,poldrack-categorize,397,393148,0.0-395.0,8a41bab5-59fd-41d6-96c1-0edb20b09b0d,,1500,250,stim,,"<div class = centerbox><div class = stroop-stim style = ""color:red"">RED</div></div>","66,71,82",1500,practice,,,congruent,TRUE,82,,,500,red,red,-1,-1,poldrack-single-stim,398,393903,0.0-396.0,8a41bab5-59fd-41d6-96c1-0edb20b09b0d,,500,500,fixation,,<div class = centerbox><div class = fixation>+</div></div>,none,500,practice,,,,,,,,,,,805,82,poldrack-categorize,399,396416,0.0-397.0,8a41bab5-59fd-41d6-96c1-0edb20b09b0d,,1500,250,stim,,"<div class = centerbox><div class = stroop-stim style = ""color:red"">BLUE</div></div>","66,71,82",1500,practice,,,incongruent,TRUE,82,,,500,red,blue,-1,-1,poldrack-single-stim,400,397177,0.0-398.0,8a41bab5-59fd-41d6-96c1-0edb20b09b0d,,500,500,fixation,,<div class = centerbox><div class = fixation>+</div></div>,none,500,practice,,,,,,,,,,,820,82,poldrack-categorize,401,399690,0.0-399.0,8a41bab5-59fd-41d6-96c1-0edb20b09b0d,,1500,250,stim,,"<div class = centerbox><div class = stroop-stim style = ""color:red"">BLUE</div></div>","66,71,82",1500,practice,,,incongruent,TRUE,82,,,500,red,blue,-1,-1,poldrack-single-stim,402,400447,0.0-400.0,8a41bab5-59fd-41d6-96c1-0edb20b09b0d,,500,500,fixation,,<div class = centerbox><div class = fixation>+</div></div>,none,500,practice,,,,,,,,,,,613,82,poldrack-categorize,403,402958,0.0-401.0,8a41bab5-59fd-41d6-96c1-0edb20b09b0d,,1500,250,stim,,"<div class = centerbox><div class = stroop-stim style = ""color:red"">RED</div></div>","66,71,82",1500,practice,,,congruent,TRUE,82,,,500,red,red,-1,-1,poldrack-single-stim,404,403718,0.0-402.0,8a41bab5-59fd-41d6-96c1-0edb20b09b0d,,500,500,fixation,,<div class = centerbox><div class = fixation>+</div></div>,none,500,practice,,,,,,,,,,,674,71,poldrack-categorize,405,406226,0.0-403.0,8a41bab5-59fd-41d6-96c1-0edb20b09b0d,,1500,250,stim,,"<div class = centerbox><div class = stroop-stim style = ""color:green"">GREEN</div></div>","66,71,82",1500,practice,,,congruent,TRUE,71,,,500,green,green,-1,-1,poldrack-single-stim,406,406986,0.0-404.0,8a41bab5-59fd-41d6-96c1-0edb20b09b0d,,500,500,fixation,,<div class = centerbox><div class = fixation>+</div></div>,none,500,practice,,,,,,,,,,,802,82,poldrack-categorize,407,409496,0.0-405.0,8a41bab5-59fd-41d6-96c1-0edb20b09b0d,,1500,250,stim,,"<div class = centerbox><div class = stroop-stim style = ""color:red"">GREEN</div></div>","66,71,82",1500,practice,,,incongruent,TRUE,82,,,500,red,green,-1,-1,poldrack-single-stim,408,410254,0.0-406.0,8a41bab5-59fd-41d6-96c1-0edb20b09b0d,,500,500,fixation,,<div class = centerbox><div class = fixation>+</div></div>,none,500,practice,,,,,,,,,,,677,66,poldrack-categorize,409,412767,0.0-407.0,8a41bab5-59fd-41d6-96c1-0edb20b09b0d,,1500,250,stim,,"<div class = centerbox><div class = stroop-stim style = ""color:blue"">BLUE</div></div>","66,71,82",1500,practice,,,congruent,TRUE,66,,,500,blue,blue,-1,-1,poldrack-single-stim,410,413528,0.0-408.0,8a41bab5-59fd-41d6-96c1-0edb20b09b0d,,500,500,fixation,,<div class = centerbox><div class = fixation>+</div></div>,none,500,practice,,,,,,,,,,,959,66,poldrack-categorize,411,416036,0.0-409.0,8a41bab5-59fd-41d6-96c1-0edb20b09b0d,,1500,250,stim,,"<div class = centerbox><div class = stroop-stim style = ""color:blue"">GREEN</div></div>","66,71,82",1500,practice,,,incongruent,TRUE,66,,,500,blue,green,-1,-1,poldrack-single-stim,412,416796,0.0-410.0,8a41bab5-59fd-41d6-96c1-0edb20b09b0d,,500,500,fixation,,<div class = centerbox><div class = fixation>+</div></div>,none,500,practice,,,,,,,,,,,727,71,poldrack-categorize,413,419309,0.0-411.0,8a41bab5-59fd-41d6-96c1-0edb20b09b0d,,1500,250,stim,,"<div class = centerbox><div class = stroop-stim style = ""color:green"">GREEN</div></div>","66,71,82",1500,practice,,,congruent,TRUE,71,,,500,green,green,-1,-1,poldrack-single-stim,414,420070,0.0-412.0,8a41bab5-59fd-41d6-96c1-0edb20b09b0d,,500,500,fixation,,<div class = centerbox><div class = fixation>+</div></div>,none,500,practice,,,,,,,,,,,589,82,poldrack-categorize,415,422583,0.0-413.0,8a41bab5-59fd-41d6-96c1-0edb20b09b0d,,1500,250,stim,,"<div class = centerbox><div class = stroop-stim style = ""color:red"">RED</div></div>","66,71,82",1500,practice,,,congruent,TRUE,82,,,500,red,red,-1,-1,poldrack-single-stim,416,423344,0.0-414.0,8a41bab5-59fd-41d6-96c1-0edb20b09b0d,,500,500,fixation,,<div class = centerbox><div class = fixation>+</div></div>,none,500,practice,,,,,,,,,,,903,66,poldrack-categorize,417,425851,0.0-415.0,8a41bab5-59fd-41d6-96c1-0edb20b09b0d,,1500,250,stim,,"<div class = centerbox><div class = stroop-stim style = ""color:blue"">BLUE</div></div>","66,71,82",1500,practice,,,congruent,TRUE,66,,,500,blue,blue,-1,-1,poldrack-single-stim,418,426612,0.0-416.0,8a41bab5-59fd-41d6-96c1-0edb20b09b0d,,500,500,fixation,,<div class = centerbox><div class = fixation>+</div></div>,none,500,practice,,,,,,,,,,,543,71,poldrack-categorize,419,429123,0.0-417.0,8a41bab5-59fd-41d6-96c1-0edb20b09b0d,,1500,250,stim,,"<div class = centerbox><div class = stroop-stim style = ""color:green"">GREEN</div></div>","66,71,82",1500,practice,,,congruent,TRUE,71,,,500,green,green,-1,-1,poldrack-single-stim,420,429880,0.0-418.0,8a41bab5-59fd-41d6-96c1-0edb20b09b0d,,500,500,fixation,,<div class = centerbox><div class = fixation>+</div></div>,none,500,practice,,,,,,,,,,,883,66,poldrack-categorize,421,432393,0.0-419.0,8a41bab5-59fd-41d6-96c1-0edb20b09b0d,,1500,250,stim,,"<div class = centerbox><div class = stroop-stim style = ""color:blue"">RED</div></div>","66,71,82",1500,practice,,,incongruent,TRUE,66,,,500,blue,red,-1,-1,poldrack-single-stim,422,433154,0.0-420.0,8a41bab5-59fd-41d6-96c1-0edb20b09b0d,,500,500,fixation,,<div class = centerbox><div class = fixation>+</div></div>,none,500,practice,,,,,,,,,,,577,71,poldrack-categorize,423,435667,0.0-421.0,8a41bab5-59fd-41d6-96c1-0edb20b09b0d,,1500,250,stim,,"<div class = centerbox><div class = stroop-stim style = ""color:green"">GREEN</div></div>","66,71,82",1500,practice,,,congruent,TRUE,71,,,500,green,green,-1,-1,poldrack-single-stim,424,436427,0.0-422.0,8a41bab5-59fd-41d6-96c1-0edb20b09b0d,,500,500,fixation,,<div class = centerbox><div class = fixation>+</div></div>,none,500,practice,,,,,,,,,,,976,66,poldrack-categorize,425,438939,0.0-423.0,8a41bab5-59fd-41d6-96c1-0edb20b09b0d,,1500,250,stim,,"<div class = centerbox><div class = stroop-stim style = ""color:blue"">RED</div></div>","66,71,82",1500,practice,,,incongruent,TRUE,66,,,500,blue,red,-1,-1,poldrack-single-stim,426,439695,0.0-424.0,8a41bab5-59fd-41d6-96c1-0edb20b09b0d,,500,500,fixation,,<div class = centerbox><div class = fixation>+</div></div>,none,500,practice,,,,,,,,,,,874,71,poldrack-categorize,427,442209,0.0-425.0,8a41bab5-59fd-41d6-96c1-0edb20b09b0d,,1500,250,stim,,"<div class = centerbox><div class = stroop-stim style = ""color:green"">BLUE</div></div>","66,71,82",1500,practice,,,incongruent,TRUE,71,,,500,green,blue,-1,-1,poldrack-single-stim,428,442963,0.0-426.0,8a41bab5-59fd-41d6-96c1-0edb20b09b0d,,500,500,fixation,,<div class = centerbox><div class = fixation>+</div></div>,none,500,practice,,,,,,,,,,,838,66,poldrack-categorize,429,445477,0.0-427.0,8a41bab5-59fd-41d6-96c1-0edb20b09b0d,,1500,250,stim,,"<div class = centerbox><div class = stroop-stim style = ""color:blue"">GREEN</div></div>","66,71,82",1500,practice,,,incongruent,TRUE,66,,,500,blue,green,-1,-1,poldrack-single-stim,430,446237,0.0-428.0,8a41bab5-59fd-41d6-96c1-0edb20b09b0d,,500,500,fixation,,<div class = centerbox><div class = fixation>+</div></div>,none,500,practice,,,,,,,,,,,716,66,poldrack-categorize,431,448746,0.0-429.0,8a41bab5-59fd-41d6-96c1-0edb20b09b0d,,1500,250,stim,,"<div class = centerbox><div class = stroop-stim style = ""color:blue"">BLUE</div></div>","66,71,82",1500,practice,,,congruent,TRUE,66,,,500,blue,blue,-1,-1,poldrack-single-stim,432,449505,0.0-430.0,8a41bab5-59fd-41d6-96c1-0edb20b09b0d,,500,500,fixation,,<div class = centerbox><div class = fixation>+</div></div>,none,500,practice,,,,,,,,,,,720,71,poldrack-categorize,433,452018,0.0-431.0,8a41bab5-59fd-41d6-96c1-0edb20b09b0d,,1500,250,stim,,"<div class = centerbox><div class = stroop-stim style = ""color:green"">RED</div></div>","66,71,82",1500,practice,,,incongruent,TRUE,71,,,500,green,red,-1,-1,poldrack-single-stim,434,452779,0.0-432.0,8a41bab5-59fd-41d6-96c1-0edb20b09b0d,,500,500,fixation,,<div class = centerbox><div class = fixation>+</div></div>,none,500,practice,,,,,,,,,,,925,71,poldrack-categorize,435,455292,0.0-433.0,8a41bab5-59fd-41d6-96c1-0edb20b09b0d,,1500,250,stim,,"<div class = centerbox><div class = stroop-stim style = ""color:green"">BLUE</div></div>","66,71,82",1500,practice,,,incongruent,TRUE,71,,,500,green,blue,-1,-1,poldrack-single-stim,436,456053,0.0-434.0,8a41bab5-59fd-41d6-96c1-0edb20b09b0d,,500,500,fixation,,<div class = centerbox><div class = fixation>+</div></div>,none,500,practice,,,,,,,,,,,915,82,poldrack-categorize,437,458566,0.0-435.0,8a41bab5-59fd-41d6-96c1-0edb20b09b0d,,1500,250,stim,,"<div class = centerbox><div class = stroop-stim style = ""color:red"">GREEN</div></div>","66,71,82",1500,practice,,,incongruent,TRUE,82,,,500,red,green,-1,-1,poldrack-single-stim,438,459327,0.0-436.0,8a41bab5-59fd-41d6-96c1-0edb20b09b0d,,500,500,fixation,,<div class = centerbox><div class = fixation>+</div></div>,none,500,practice,,,,,,,,,,,818,71,poldrack-categorize,439,461834,0.0-437.0,8a41bab5-59fd-41d6-96c1-0edb20b09b0d,,1500,250,stim,,"<div class = centerbox><div class = stroop-stim style = ""color:green"">RED</div></div>","66,71,82",1500,practice,,,incongruent,TRUE,71,,,500,green,red,4672,13,poldrack-text,440,466762,0.0-439.0,8a41bab5-59fd-41d6-96c1-0edb20b09b0d,<div class = centerbox><p class = center-block-text>We will now start the test. Respond exactly like you did during practice.</p><p class = center-block-text>Press <strong>enter</strong> to begin the test.</p></div>,4672,1000,test_intro,,,,,,,,,,,,,,,,-1,-1,poldrack-single-stim,441,468272,0.0-440.0,8a41bab5-59fd-41d6-96c1-0edb20b09b0d,,500,500,fixation,,<div class = centerbox><div class = fixation>+</div></div>,none,500,test,,,,,,,,,,,661,71,poldrack-categorize,442,470779,0.0-441.0,8a41bab5-59fd-41d6-96c1-0edb20b09b0d,,1500,250,stim,,"<div class = centerbox><div class = stroop-stim style = ""color:green"">GREEN</div></div>","66,71,82",1500,test,,,congruent,TRUE,71,,,500,green,green,-1,-1,poldrack-single-stim,443,471534,0.0-442.0,8a41bab5-59fd-41d6-96c1-0edb20b09b0d,,500,500,fixation,,<div class = centerbox><div class = fixation>+</div></div>,none,500,test,,,,,,,,,,,545,71,poldrack-categorize,444,474047,0.0-443.0,8a41bab5-59fd-41d6-96c1-0edb20b09b0d,,1500,250,stim,,"<div class = centerbox><div class = stroop-stim style = ""color:green"">GREEN</div></div>","66,71,82",1500,test,,,congruent,TRUE,71,,,500,green,green,-1,-1,poldrack-single-stim,445,474805,0.0-444.0,8a41bab5-59fd-41d6-96c1-0edb20b09b0d,,500,500,fixation,,<div class = centerbox><div class = fixation>+</div></div>,none,500,test,,,,,,,,,,,962,71,poldrack-categorize,446,477315,0.0-445.0,8a41bab5-59fd-41d6-96c1-0edb20b09b0d,,1500,250,stim,,"<div class = centerbox><div class = stroop-stim style = ""color:green"">BLUE</div></div>","66,71,82",1500,test,,,incongruent,TRUE,71,,,500,green,blue,-1,-1,poldrack-single-stim,447,478076,0.0-446.0,8a41bab5-59fd-41d6-96c1-0edb20b09b0d,,500,500,fixation,,<div class = centerbox><div class = fixation>+</div></div>,none,500,test,,,,,,,,,,,732,66,poldrack-categorize,448,480589,0.0-447.0,8a41bab5-59fd-41d6-96c1-0edb20b09b0d,,1500,250,stim,,"<div class = centerbox><div class = stroop-stim style = ""color:blue"">RED</div></div>","66,71,82",1500,test,,,incongruent,TRUE,66,,,500,blue,red,-1,-1,poldrack-single-stim,449,481349,0.0-448.0,8a41bab5-59fd-41d6-96c1-0edb20b09b0d,,500,500,fixation,,<div class = centerbox><div class = fixation>+</div></div>,none,500,test,,,,,,,,,,,929,66,poldrack-categorize,450,483863,0.0-449.0,8a41bab5-59fd-41d6-96c1-0edb20b09b0d,,1500,250,stim,,"<div class = centerbox><div class = stroop-stim style = ""color:blue"">BLUE</div></div>","66,71,82",1500,test,,,congruent,TRUE,66,,,500,blue,blue,-1,-1,poldrack-single-stim,451,484623,0.0-450.0,8a41bab5-59fd-41d6-96c1-0edb20b09b0d,,500,500,fixation,,<div class = centerbox><div class = fixation>+</div></div>,none,500,test,,,,,,,,,,,599,66,poldrack-categorize,452,487136,0.0-451.0,8a41bab5-59fd-41d6-96c1-0edb20b09b0d,,1500,250,stim,,"<div class = centerbox><div class = stroop-stim style = ""color:blue"">BLUE</div></div>","66,71,82",1500,test,,,congruent,TRUE,66,,,500,blue,blue,-1,-1,poldrack-single-stim,453,487897,0.0-452.0,8a41bab5-59fd-41d6-96c1-0edb20b09b0d,,500,500,fixation,,<div class = centerbox><div class = fixation>+</div></div>,none,500,test,,,,,,,,,,,630,71,poldrack-categorize,454,490410,0.0-453.0,8a41bab5-59fd-41d6-96c1-0edb20b09b0d,,1500,250,stim,,"<div class = centerbox><div class = stroop-stim style = ""color:green"">GREEN</div></div>","66,71,82",1500,test,,,congruent,TRUE,71,,,500,green,green,-1,-1,poldrack-single-stim,455,491168,0.0-454.0,8a41bab5-59fd-41d6-96c1-0edb20b09b0d,,500,500,fixation,,<div class = centerbox><div class = fixation>+</div></div>,none,500,test,,,,,,,,,,,793,66,poldrack-categorize,456,493678,0.0-455.0,8a41bab5-59fd-41d6-96c1-0edb20b09b0d,,1500,250,stim,,"<div class = centerbox><div class = stroop-stim style = ""color:blue"">BLUE</div></div>","66,71,82",1500,test,,,congruent,TRUE,66,,,500,blue,blue,-1,-1,poldrack-single-stim,457,494439,0.0-456.0,8a41bab5-59fd-41d6-96c1-0edb20b09b0d,,500,500,fixation,,<div class = centerbox><div class = fixation>+</div></div>,none,500,test,,,,,,,,,,,712,82,poldrack-categorize,458,496952,0.0-457.0,8a41bab5-59fd-41d6-96c1-0edb20b09b0d,,1500,250,stim,,"<div class = centerbox><div class = stroop-stim style = ""color:red"">GREEN</div></div>","66,71,82",1500,test,,,incongruent,TRUE,82,,,500,red,green,-1,-1,poldrack-single-stim,459,497713,0.0-458.0,8a41bab5-59fd-41d6-96c1-0edb20b09b0d,,500,500,fixation,,<div class = centerbox><div class = fixation>+</div></div>,none,500,test,,,,,,,,,,,566,82,poldrack-categorize,460,500226,0.0-459.0,8a41bab5-59fd-41d6-96c1-0edb20b09b0d,,1500,250,stim,,"<div class = centerbox><div class = stroop-stim style = ""color:red"">RED</div></div>","66,71,82",1500,test,,,congruent,TRUE,82,,,500,red,red,-1,-1,poldrack-single-stim,461,500982,0.0-460.0,8a41bab5-59fd-41d6-96c1-0edb20b09b0d,,500,500,fixation,,<div class = centerbox><div class = fixation>+</div></div>,none,500,test,,,,,,,,,,,577,82,poldrack-categorize,462,503494,0.0-461.0,8a41bab5-59fd-41d6-96c1-0edb20b09b0d,,1500,250,stim,,"<div class = centerbox><div class = stroop-stim style = ""color:red"">RED</div></div>","66,71,82",1500,test,,,congruent,TRUE,82,,,500,red,red,-1,-1,poldrack-single-stim,463,504254,0.0-462.0,8a41bab5-59fd-41d6-96c1-0edb20b09b0d,,500,500,fixation,,<div class = centerbox><div class = fixation>+</div></div>,none,500,test,,,,,,,,,,,529,71,poldrack-categorize,464,506768,0.0-463.0,8a41bab5-59fd-41d6-96c1-0edb20b09b0d,,1500,250,stim,,"<div class = centerbox><div class = stroop-stim style = ""color:green"">GREEN</div></div>","66,71,82",1500,test,,,congruent,TRUE,71,,,500,green,green,-1,-1,poldrack-single-stim,465,507528,0.0-464.0,8a41bab5-59fd-41d6-96c1-0edb20b09b0d,,500,500,fixation,,<div class = centerbox><div class = fixation>+</div></div>,none,500,test,,,,,,,,,,,622,82,poldrack-categorize,466,510041,0.0-465.0,8a41bab5-59fd-41d6-96c1-0edb20b09b0d,,1500,250,stim,,"<div class = centerbox><div class = stroop-stim style = ""color:red"">RED</div></div>","66,71,82",1500,test,,,congruent,TRUE,82,,,500,red,red,-1,-1,poldrack-single-stim,467,510798,0.0-466.0,8a41bab5-59fd-41d6-96c1-0edb20b09b0d,,500,500,fixation,,<div class = centerbox><div class = fixation>+</div></div>,none,500,test,,,,,,,,,,,705,82,poldrack-categorize,468,513311,0.0-467.0,8a41bab5-59fd-41d6-96c1-0edb20b09b0d,,1500,250,stim,,"<div class = centerbox><div class = stroop-stim style = ""color:red"">BLUE</div></div>","66,71,82",1500,test,,,incongruent,TRUE,82,,,500,red,blue,-1,-1,poldrack-single-stim,469,514070,0.0-468.0,8a41bab5-59fd-41d6-96c1-0edb20b09b0d,,500,500,fixation,,<div class = centerbox><div class = fixation>+</div></div>,none,500,test,,,,,,,,,,,679,66,poldrack-categorize,470,516577,0.0-469.0,8a41bab5-59fd-41d6-96c1-0edb20b09b0d,,1500,250,stim,,"<div class = centerbox><div class = stroop-stim style = ""color:blue"">RED</div></div>","66,71,82",1500,test,,,incongruent,TRUE,66,,,500,blue,red,-1,-1,poldrack-single-stim,471,517338,0.0-470.0,8a41bab5-59fd-41d6-96c1-0edb20b09b0d,,500,500,fixation,,<div class = centerbox><div class = fixation>+</div></div>,none,500,test,,,,,,,,,,,779,66,poldrack-categorize,472,519851,0.0-471.0,8a41bab5-59fd-41d6-96c1-0edb20b09b0d,,1500,250,stim,,"<div class = centerbox><div class = stroop-stim style = ""color:blue"">GREEN</div></div>","66,71,82",1500,test,,,incongruent,TRUE,66,,,500,blue,green,-1,-1,poldrack-single-stim,473,520612,0.0-472.0,8a41bab5-59fd-41d6-96c1-0edb20b09b0d,,500,500,fixation,,<div class = centerbox><div class = fixation>+</div></div>,none,500,test,,,,,,,,,,,585,66,poldrack-categorize,474,523125,0.0-473.0,8a41bab5-59fd-41d6-96c1-0edb20b09b0d,,1500,250,stim,,"<div class = centerbox><div class = stroop-stim style = ""color:blue"">BLUE</div></div>","66,71,82",1500,test,,,congruent,TRUE,66,,,500,blue,blue,-1,-1,poldrack-single-stim,475,523886,0.0-474.0,8a41bab5-59fd-41d6-96c1-0edb20b09b0d,,500,500,fixation,,<div class = centerbox><div class = fixation>+</div></div>,none,500,test,,,,,,,,,,,728,66,poldrack-categorize,476,526399,0.0-475.0,8a41bab5-59fd-41d6-96c1-0edb20b09b0d,,1500,250,stim,,"<div class = centerbox><div class = stroop-stim style = ""color:blue"">RED</div></div>","66,71,82",1500,test,,,incongruent,TRUE,66,,,500,blue,red,-1,-1,poldrack-single-stim,477,527155,0.0-476.0,8a41bab5-59fd-41d6-96c1-0edb20b09b0d,,500,500,fixation,,<div class = centerbox><div class = fixation>+</div></div>,none,500,test,,,,,,,,,,,640,82,poldrack-categorize,478,529665,0.0-477.0,8a41bab5-59fd-41d6-96c1-0edb20b09b0d,,1500,250,stim,,"<div class = centerbox><div class = stroop-stim style = ""color:red"">RED</div></div>","66,71,82",1500,test,,,congruent,TRUE,82,,,500,red,red,-1,-1,poldrack-single-stim,479,530420,0.0-478.0,8a41bab5-59fd-41d6-96c1-0edb20b09b0d,,500,500,fixation,,<div class = centerbox><div class = fixation>+</div></div>,none,500,test,,,,,,,,,,,861,66,poldrack-categorize,480,532929,0.0-479.0,8a41bab5-59fd-41d6-96c1-0edb20b09b0d,,1500,250,stim,,"<div class = centerbox><div class = stroop-stim style = ""color:blue"">GREEN</div></div>","66,71,82",1500,test,,,incongruent,TRUE,66,,,500,blue,green,-1,-1,poldrack-single-stim,481,533690,0.0-480.0,8a41bab5-59fd-41d6-96c1-0edb20b09b0d,,500,500,fixation,,<div class = centerbox><div class = fixation>+</div></div>,none,500,test,,,,,,,,,,,562,71,poldrack-categorize,482,536203,0.0-481.0,8a41bab5-59fd-41d6-96c1-0edb20b09b0d,,1500,250,stim,,"<div class = centerbox><div class = stroop-stim style = ""color:green"">GREEN</div></div>","66,71,82",1500,test,,,congruent,TRUE,71,,,500,green,green,-1,-1,poldrack-single-stim,483,536963,0.0-482.0,8a41bab5-59fd-41d6-96c1-0edb20b09b0d,,500,500,fixation,,<div class = centerbox><div class = fixation>+</div></div>,none,500,test,,,,,,,,,,,752,66,poldrack-categorize,484,539477,0.0-483.0,8a41bab5-59fd-41d6-96c1-0edb20b09b0d,,1500,250,stim,,"<div class = centerbox><div class = stroop-stim style = ""color:blue"">RED</div></div>","66,71,82",1500,test,,,incongruent,TRUE,66,,,500,blue,red,-1,-1,poldrack-single-stim,485,540237,0.0-484.0,8a41bab5-59fd-41d6-96c1-0edb20b09b0d,,500,500,fixation,,<div class = centerbox><div class = fixation>+</div></div>,none,500,test,,,,,,,,,,,770,82,poldrack-categorize,486,542745,0.0-485.0,8a41bab5-59fd-41d6-96c1-0edb20b09b0d,,1500,250,stim,,"<div class = centerbox><div class = stroop-stim style = ""color:red"">GREEN</div></div>","66,71,82",1500,test,,,incongruent,TRUE,82,,,500,red,green,-1,-1,poldrack-single-stim,487,543505,0.0-486.0,8a41bab5-59fd-41d6-96c1-0edb20b09b0d,,500,500,fixation,,<div class = centerbox><div class = fixation>+</div></div>,none,500,test,,,,,,,,,,,874,82,poldrack-categorize,488,546018,0.0-487.0,8a41bab5-59fd-41d6-96c1-0edb20b09b0d,,1500,250,stim,,"<div class = centerbox><div class = stroop-stim style = ""color:red"">GREEN</div></div>","66,71,82",1500,test,,,incongruent,TRUE,82,,,500,red,green,-1,-1,poldrack-single-stim,489,546779,0.0-488.0,8a41bab5-59fd-41d6-96c1-0edb20b09b0d,,500,500,fixation,,<div class = centerbox><div class = fixation>+</div></div>,none,500,test,,,,,,,,,,,842,71,poldrack-categorize,490,549292,0.0-489.0,8a41bab5-59fd-41d6-96c1-0edb20b09b0d,,1500,250,stim,,"<div class = centerbox><div class = stroop-stim style = ""color:green"">BLUE</div></div>","66,71,82",1500,test,,,incongruent,TRUE,71,,,500,green,blue,-1,-1,poldrack-single-stim,491,550053,0.0-490.0,8a41bab5-59fd-41d6-96c1-0edb20b09b0d,,500,500,fixation,,<div class = centerbox><div class = fixation>+</div></div>,none,500,test,,,,,,,,,,,822,71,poldrack-categorize,492,552566,0.0-491.0,8a41bab5-59fd-41d6-96c1-0edb20b09b0d,,1500,250,stim,,"<div class = centerbox><div class = stroop-stim style = ""color:green"">RED</div></div>","66,71,82",1500,test,,,incongruent,TRUE,71,,,500,green,red,-1,-1,poldrack-single-stim,493,553327,0.0-492.0,8a41bab5-59fd-41d6-96c1-0edb20b09b0d,,500,500,fixation,,<div class = centerbox><div class = fixation>+</div></div>,none,500,test,,,,,,,,,,,572,71,poldrack-categorize,494,555840,0.0-493.0,8a41bab5-59fd-41d6-96c1-0edb20b09b0d,,1500,250,stim,,"<div class = centerbox><div class = stroop-stim style = ""color:green"">GREEN</div></div>","66,71,82",1500,test,,,congruent,TRUE,71,,,500,green,green,-1,-1,poldrack-single-stim,495,556594,0.0-494.0,8a41bab5-59fd-41d6-96c1-0edb20b09b0d,,500,500,fixation,,<div class = centerbox><div class = fixation>+</div></div>,none,500,test,,,,,,,,,,,664,82,poldrack-categorize,496,559108,0.0-495.0,8a41bab5-59fd-41d6-96c1-0edb20b09b0d,,1500,250,stim,,"<div class = centerbox><div class = stroop-stim style = ""color:red"">BLUE</div></div>","66,71,82",1500,test,,,incongruent,TRUE,82,,,500,red,blue,-1,-1,poldrack-single-stim,497,559868,0.0-496.0,8a41bab5-59fd-41d6-96c1-0edb20b09b0d,,500,500,fixation,,<div class = centerbox><div class = fixation>+</div></div>,none,500,test,,,,,,,,,,,686,66,poldrack-categorize,498,562382,0.0-497.0,8a41bab5-59fd-41d6-96c1-0edb20b09b0d,,1500,250,stim,,"<div class = centerbox><div class = stroop-stim style = ""color:blue"">BLUE</div></div>","66,71,82",1500,test,,,congruent,TRUE,66,,,500,blue,blue,-1,-1,poldrack-single-stim,499,563142,0.0-498.0,8a41bab5-59fd-41d6-96c1-0edb20b09b0d,,500,500,fixation,,<div class = centerbox><div class = fixation>+</div></div>,none,500,test,,,,,,,,,,,691,82,poldrack-categorize,500,565655,0.0-499.0,8a41bab5-59fd-41d6-96c1-0edb20b09b0d,,1500,250,stim,,"<div class = centerbox><div class = stroop-stim style = ""color:red"">RED</div></div>","66,71,82",1500,test,,,congruent,TRUE,82,,,500,red,red,-1,-1,poldrack-single-stim,501,566416,0.0-500.0,8a41bab5-59fd-41d6-96c1-0edb20b09b0d,,500,500,fixation,,<div class = centerbox><div class = fixation>+</div></div>,none,500,test,,,,,,,,,,,745,82,poldrack-categorize,502,568929,0.0-501.0,8a41bab5-59fd-41d6-96c1-0edb20b09b0d,,1500,250,stim,,"<div class = centerbox><div class = stroop-stim style = ""color:red"">BLUE</div></div>","66,71,82",1500,test,,,incongruent,TRUE,82,,,500,red,blue,-1,-1,poldrack-single-stim,503,569684,0.0-502.0,8a41bab5-59fd-41d6-96c1-0edb20b09b0d,,500,500,fixation,,<div class = centerbox><div class = fixation>+</div></div>,none,500,test,,,,,,,,,,,677,82,poldrack-categorize,504,572197,0.0-503.0,8a41bab5-59fd-41d6-96c1-0edb20b09b0d,,1500,250,stim,,"<div class = centerbox><div class = stroop-stim style = ""color:red"">RED</div></div>","66,71,82",1500,test,,,congruent,TRUE,82,,,500,red,red,-1,-1,poldrack-single-stim,505,572958,0.0-504.0,8a41bab5-59fd-41d6-96c1-0edb20b09b0d,,500,500,fixation,,<div class = centerbox><div class = fixation>+</div></div>,none,500,test,,,,,,,,,,,508,82,poldrack-categorize,506,575471,0.0-505.0,8a41bab5-59fd-41d6-96c1-0edb20b09b0d,,1500,250,stim,,"<div class = centerbox><div class = stroop-stim style = ""color:red"">RED</div></div>","66,71,82",1500,test,,,congruent,TRUE,82,,,500,red,red,-1,-1,poldrack-single-stim,507,576232,0.0-506.0,8a41bab5-59fd-41d6-96c1-0edb20b09b0d,,500,500,fixation,,<div class = centerbox><div class = fixation>+</div></div>,none,500,test,,,,,,,,,,,626,71,poldrack-categorize,508,578745,0.0-507.0,8a41bab5-59fd-41d6-96c1-0edb20b09b0d,,1500,250,stim,,"<div class = centerbox><div class = stroop-stim style = ""color:green"">GREEN</div></div>","66,71,82",1500,test,,,congruent,TRUE,71,,,500,green,green,-1,-1,poldrack-single-stim,509,579505,0.0-508.0,8a41bab5-59fd-41d6-96c1-0edb20b09b0d,,500,500,fixation,,<div class = centerbox><div class = fixation>+</div></div>,none,500,test,,,,,,,,,,,823,71,poldrack-categorize,510,582019,0.0-509.0,8a41bab5-59fd-41d6-96c1-0edb20b09b0d,,1500,250,stim,,"<div class = centerbox><div class = stroop-stim style = ""color:green"">BLUE</div></div>","66,71,82",1500,test,,,incongruent,TRUE,71,,,500,green,blue,-1,-1,poldrack-single-stim,511,582779,0.0-510.0,8a41bab5-59fd-41d6-96c1-0edb20b09b0d,,500,500,fixation,,<div class = centerbox><div class = fixation>+</div></div>,none,500,test,,,,,,,,,,,678,66,poldrack-categorize,512,585286,0.0-511.0,8a41bab5-59fd-41d6-96c1-0edb20b09b0d,,1500,250,stim,,"<div class = centerbox><div class = stroop-stim style = ""color:blue"">GREEN</div></div>","66,71,82",1500,test,,,incongruent,TRUE,66,,,500,blue,green,-1,-1,poldrack-single-stim,513,586047,0.0-512.0,8a41bab5-59fd-41d6-96c1-0edb20b09b0d,,500,500,fixation,,<div class = centerbox><div class = fixation>+</div></div>,none,500,test,,,,,,,,,,,609,66,poldrack-categorize,514,588560,0.0-513.0,8a41bab5-59fd-41d6-96c1-0edb20b09b0d,,1500,250,stim,,"<div class = centerbox><div class = stroop-stim style = ""color:blue"">GREEN</div></div>","66,71,82",1500,test,,,incongruent,TRUE,66,,,500,blue,green,-1,-1,poldrack-single-stim,515,589321,0.0-514.0,8a41bab5-59fd-41d6-96c1-0edb20b09b0d,,500,500,fixation,,<div class = centerbox><div class = fixation>+</div></div>,none,500,test,,,,,,,,,,,568,71,poldrack-categorize,516,591828,0.0-515.0,8a41bab5-59fd-41d6-96c1-0edb20b09b0d,,1500,250,stim,,"<div class = centerbox><div class = stroop-stim style = ""color:green"">GREEN</div></div>","66,71,82",1500,test,,,congruent,TRUE,71,,,500,green,green,-1,-1,poldrack-single-stim,517,592589,0.0-516.0,8a41bab5-59fd-41d6-96c1-0edb20b09b0d,,500,500,fixation,,<div class = centerbox><div class = fixation>+</div></div>,none,500,test,,,,,,,,,,,731,82,poldrack-categorize,518,595102,0.0-517.0,8a41bab5-59fd-41d6-96c1-0edb20b09b0d,,1500,250,stim,,"<div class = centerbox><div class = stroop-stim style = ""color:red"">BLUE</div></div>","66,71,82",1500,test,,,incongruent,TRUE,82,,,500,red,blue,-1,-1,poldrack-single-stim,519,595863,0.0-518.0,8a41bab5-59fd-41d6-96c1-0edb20b09b0d,,500,500,fixation,,<div class = centerbox><div class = fixation>+</div></div>,none,500,test,,,,,,,,,,,610,71,poldrack-categorize,520,598376,0.0-519.0,8a41bab5-59fd-41d6-96c1-0edb20b09b0d,,1500,250,stim,,"<div class = centerbox><div class = stroop-stim style = ""color:green"">GREEN</div></div>","66,71,82",1500,test,,,congruent,TRUE,71,,,500,green,green,-1,-1,poldrack-single-stim,521,599136,0.0-520.0,8a41bab5-59fd-41d6-96c1-0edb20b09b0d,,500,500,fixation,,<div class = centerbox><div class = fixation>+</div></div>,none,500,test,,,,,,,,,,,631,82,poldrack-categorize,522,601650,0.0-521.0,8a41bab5-59fd-41d6-96c1-0edb20b09b0d,,1500,250,stim,,"<div class = centerbox><div class = stroop-stim style = ""color:red"">RED</div></div>","66,71,82",1500,test,,,congruent,TRUE,82,,,500,red,red,-1,-1,poldrack-single-stim,523,602410,0.0-522.0,8a41bab5-59fd-41d6-96c1-0edb20b09b0d,,500,500,fixation,,<div class = centerbox><div class = fixation>+</div></div>,none,500,test,,,,,,,,,,,661,82,poldrack-categorize,524,604923,0.0-523.0,8a41bab5-59fd-41d6-96c1-0edb20b09b0d,,1500,250,stim,,"<div class = centerbox><div class = stroop-stim style = ""color:red"">GREEN</div></div>","66,71,82",1500,test,,,incongruent,TRUE,82,,,500,red,green,-1,-1,poldrack-single-stim,525,605684,0.0-524.0,8a41bab5-59fd-41d6-96c1-0edb20b09b0d,,500,500,fixation,,<div class = centerbox><div class = fixation>+</div></div>,none,500,test,,,,,,,,,,,579,71,poldrack-categorize,526,608198,0.0-525.0,8a41bab5-59fd-41d6-96c1-0edb20b09b0d,,1500,250,stim,,"<div class = centerbox><div class = stroop-stim style = ""color:green"">BLUE</div></div>","66,71,82",1500,test,,,incongruent,TRUE,71,,,500,green,blue,-1,-1,poldrack-single-stim,527,608958,0.0-526.0,8a41bab5-59fd-41d6-96c1-0edb20b09b0d,,500,500,fixation,,<div class = centerbox><div class = fixation>+</div></div>,none,500,test,,,,,,,,,,,609,66,poldrack-categorize,528,611471,0.0-527.0,8a41bab5-59fd-41d6-96c1-0edb20b09b0d,,1500,250,stim,,"<div class = centerbox><div class = stroop-stim style = ""color:blue"">BLUE</div></div>","66,71,82",1500,test,,,congruent,TRUE,66,,,500,blue,blue,-1,-1,poldrack-single-stim,529,612232,0.0-528.0,8a41bab5-59fd-41d6-96c1-0edb20b09b0d,,500,500,fixation,,<div class = centerbox><div class = fixation>+</div></div>,none,500,test,,,,,,,,,,,527,82,poldrack-categorize,530,614747,0.0-529.0,8a41bab5-59fd-41d6-96c1-0edb20b09b0d,,1500,250,stim,,"<div class = centerbox><div class = stroop-stim style = ""color:red"">RED</div></div>","66,71,82",1500,test,,,congruent,TRUE,82,,,500,red,red,-1,-1,poldrack-single-stim,531,615505,0.0-530.0,8a41bab5-59fd-41d6-96c1-0edb20b09b0d,,500,500,fixation,,<div class = centerbox><div class = fixation>+</div></div>,none,500,test,,,,,,,,,,,589,71,poldrack-categorize,532,618013,0.0-531.0,8a41bab5-59fd-41d6-96c1-0edb20b09b0d,,1500,250,stim,,"<div class = centerbox><div class = stroop-stim style = ""color:green"">GREEN</div></div>","66,71,82",1500,test,,,congruent,TRUE,71,,,500,green,green,-1,-1,poldrack-single-stim,533,618773,0.0-532.0,8a41bab5-59fd-41d6-96c1-0edb20b09b0d,,500,500,fixation,,<div class = centerbox><div class = fixation>+</div></div>,none,500,test,,,,,,,,,,,833,66,poldrack-categorize,534,621287,0.0-533.0,8a41bab5-59fd-41d6-96c1-0edb20b09b0d,,1500,250,stim,,"<div class = centerbox><div class = stroop-stim style = ""color:blue"">BLUE</div></div>","66,71,82",1500,test,,,congruent,TRUE,66,,,500,blue,blue,-1,-1,poldrack-single-stim,535,622047,0.0-534.0,8a41bab5-59fd-41d6-96c1-0edb20b09b0d,,500,500,fixation,,<div class = centerbox><div class = fixation>+</div></div>,none,500,test,,,,,,,,,,,807,66,poldrack-categorize,536,624561,0.0-535.0,8a41bab5-59fd-41d6-96c1-0edb20b09b0d,,1500,250,stim,,"<div class = centerbox><div class = stroop-stim style = ""color:blue"">RED</div></div>","66,71,82",1500,test,,,incongruent,TRUE,66,,,500,blue,red,-1,-1,poldrack-single-stim,537,625321,0.0-536.0,8a41bab5-59fd-41d6-96c1-0edb20b09b0d,,500,500,fixation,,<div class = centerbox><div class = fixation>+</div></div>,none,500,test,,,,,,,,,,,524,66,poldrack-categorize,538,627834,0.0-537.0,8a41bab5-59fd-41d6-96c1-0edb20b09b0d,,1500,250,stim,,"<div class = centerbox><div class = stroop-stim style = ""color:blue"">BLUE</div></div>","66,71,82",1500,test,,,congruent,TRUE,66,,,500,blue,blue,-1,-1,poldrack-single-stim,539,628589,0.0-538.0,8a41bab5-59fd-41d6-96c1-0edb20b09b0d,,500,500,fixation,,<div class = centerbox><div class = fixation>+</div></div>,none,500,test,,,,,,,,,,,608,82,poldrack-categorize,540,631102,0.0-539.0,8a41bab5-59fd-41d6-96c1-0edb20b09b0d,,1500,250,stim,,"<div class = centerbox><div class = stroop-stim style = ""color:red"">BLUE</div></div>","66,71,82",1500,test,,,incongruent,TRUE,82,,,500,red,blue,-1,-1,poldrack-single-stim,541,631863,0.0-540.0,8a41bab5-59fd-41d6-96c1-0edb20b09b0d,,500,500,fixation,,<div class = centerbox><div class = fixation>+</div></div>,none,500,test,,,,,,,,,,,879,66,poldrack-categorize,542,634376,0.0-541.0,8a41bab5-59fd-41d6-96c1-0edb20b09b0d,,1500,250,stim,,"<div class = centerbox><div class = stroop-stim style = ""color:blue"">GREEN</div></div>","66,71,82",1500,test,,,incongruent,TRUE,66,,,500,blue,green,-1,-1,poldrack-single-stim,543,635137,0.0-542.0,8a41bab5-59fd-41d6-96c1-0edb20b09b0d,,500,500,fixation,,<div class = centerbox><div class = fixation>+</div></div>,none,500,test,,,,,,,,,,,790,82,poldrack-categorize,544,637650,0.0-543.0,8a41bab5-59fd-41d6-96c1-0edb20b09b0d,,1500,250,stim,,"<div class = centerbox><div class = stroop-stim style = ""color:red"">GREEN</div></div>","66,71,82",1500,test,,,incongruent,TRUE,82,,,500,red,green,-1,-1,poldrack-single-stim,545,638410,0.0-544.0,8a41bab5-59fd-41d6-96c1-0edb20b09b0d,,500,500,fixation,,<div class = centerbox><div class = fixation>+</div></div>,none,500,test,,,,,,,,,,,658,82,poldrack-categorize,546,640924,0.0-545.0,8a41bab5-59fd-41d6-96c1-0edb20b09b0d,,1500,250,stim,,"<div class = centerbox><div class = stroop-stim style = ""color:red"">RED</div></div>","66,71,82",1500,test,,,congruent,TRUE,82,,,500,red,red,-1,-1,poldrack-single-stim,547,641684,0.0-546.0,8a41bab5-59fd-41d6-96c1-0edb20b09b0d,,500,500,fixation,,<div class = centerbox><div class = fixation>+</div></div>,none,500,test,,,,,,,,,,,784,82,poldrack-categorize,548,644198,0.0-547.0,8a41bab5-59fd-41d6-96c1-0edb20b09b0d,,1500,250,stim,,"<div class = centerbox><div class = stroop-stim style = ""color:red"">GREEN</div></div>","66,71,82",1500,test,,,incongruent,TRUE,82,,,500,red,green,-1,-1,poldrack-single-stim,549,644958,0.0-548.0,8a41bab5-59fd-41d6-96c1-0edb20b09b0d,,500,500,fixation,,<div class = centerbox><div class = fixation>+</div></div>,none,500,test,,,,,,,,,,,735,71,poldrack-categorize,550,647471,0.0-549.0,8a41bab5-59fd-41d6-96c1-0edb20b09b0d,,1500,250,stim,,"<div class = centerbox><div class = stroop-stim style = ""color:green"">RED</div></div>","66,71,82",1500,test,,,incongruent,TRUE,71,,,500,green,red,-1,-1,poldrack-single-stim,551,648230,0.0-550.0,8a41bab5-59fd-41d6-96c1-0edb20b09b0d,,500,500,fixation,,<div class = centerbox><div class = fixation>+</div></div>,none,500,test,,,,,,,,,,,514,82,poldrack-categorize,552,650736,0.0-551.0,8a41bab5-59fd-41d6-96c1-0edb20b09b0d,,1500,250,stim,,"<div class = centerbox><div class = stroop-stim style = ""color:red"">RED</div></div>","66,71,82",1500,test,,,congruent,TRUE,82,,,500,red,red,-1,-1,poldrack-single-stim,553,651494,0.0-552.0,8a41bab5-59fd-41d6-96c1-0edb20b09b0d,,500,500,fixation,,<div class = centerbox><div class = fixation>+</div></div>,none,500,test,,,,,,,,,,,566,66,poldrack-categorize,554,654007,0.0-553.0,8a41bab5-59fd-41d6-96c1-0edb20b09b0d,,1500,250,stim,,"<div class = centerbox><div class = stroop-stim style = ""color:blue"">BLUE</div></div>","66,71,82",1500,test,,,congruent,TRUE,66,,,500,blue,blue,-1,-1,poldrack-single-stim,555,654768,0.0-554.0,8a41bab5-59fd-41d6-96c1-0edb20b09b0d,,500,500,fixation,,<div class = centerbox><div class = fixation>+</div></div>,none,500,test,,,,,,,,,,,709,71,poldrack-categorize,556,657281,0.0-555.0,8a41bab5-59fd-41d6-96c1-0edb20b09b0d,,1500,250,stim,,"<div class = centerbox><div class = stroop-stim style = ""color:green"">BLUE</div></div>","66,71,82",1500,test,,,incongruent,TRUE,71,,,500,green,blue,-1,-1,poldrack-single-stim,557,658042,0.0-556.0,8a41bab5-59fd-41d6-96c1-0edb20b09b0d,,500,500,fixation,,<div class = centerbox><div class = fixation>+</div></div>,none,500,test,,,,,,,,,,,499,71,poldrack-categorize,558,660555,0.0-557.0,8a41bab5-59fd-41d6-96c1-0edb20b09b0d,,1500,250,stim,,"<div class = centerbox><div class = stroop-stim style = ""color:green"">BLUE</div></div>","66,71,82",1500,test,,,incongruent,TRUE,71,,,500,green,blue,-1,-1,poldrack-single-stim,559,661316,0.0-558.0,8a41bab5-59fd-41d6-96c1-0edb20b09b0d,,500,500,fixation,,<div class = centerbox><div class = fixation>+</div></div>,none,500,test,,,,,,,,,,,592,82,poldrack-categorize,560,663829,0.0-559.0,8a41bab5-59fd-41d6-96c1-0edb20b09b0d,,1500,250,stim,,"<div class = centerbox><div class = stroop-stim style = ""color:red"">RED</div></div>","66,71,82",1500,test,,,congruent,TRUE,82,,,500,red,red,-1,-1,poldrack-single-stim,561,664589,0.0-560.0,8a41bab5-59fd-41d6-96c1-0edb20b09b0d,,500,500,fixation,,<div class = centerbox><div class = fixation>+</div></div>,none,500,test,,,,,,,,,,,558,71,poldrack-categorize,562,667103,0.0-561.0,8a41bab5-59fd-41d6-96c1-0edb20b09b0d,,1500,250,stim,,"<div class = centerbox><div class = stroop-stim style = ""color:green"">RED</div></div>","66,71,82",1500,test,,,incongruent,TRUE,71,,,500,green,red,-1,-1,poldrack-single-stim,563,667863,0.0-562.0,8a41bab5-59fd-41d6-96c1-0edb20b09b0d,,500,500,fixation,,<div class = centerbox><div class = fixation>+</div></div>,none,500,test,,,,,,,,,,,772,66,poldrack-categorize,564,670376,0.0-563.0,8a41bab5-59fd-41d6-96c1-0edb20b09b0d,,1500,250,stim,,"<div class = centerbox><div class = stroop-stim style = ""color:blue"">GREEN</div></div>","66,71,82",1500,test,,,incongruent,TRUE,66,,,500,blue,green,-1,-1,poldrack-single-stim,565,671137,0.0-564.0,8a41bab5-59fd-41d6-96c1-0edb20b09b0d,,500,500,fixation,,<div class = centerbox><div class = fixation>+</div></div>,none,500,test,,,,,,,,,,,609,71,poldrack-categorize,566,673652,0.0-565.0,8a41bab5-59fd-41d6-96c1-0edb20b09b0d,,1500,250,stim,,"<div class = centerbox><div class = stroop-stim style = ""color:green"">RED</div></div>","66,71,82",1500,test,,,incongruent,TRUE,71,,,500,green,red,-1,-1,poldrack-single-stim,567,674411,0.0-566.0,8a41bab5-59fd-41d6-96c1-0edb20b09b0d,,500,500,fixation,,<div class = centerbox><div class = fixation>+</div></div>,none,500,test,,,,,,,,,,,656,82,poldrack-categorize,568,676924,0.0-567.0,8a41bab5-59fd-41d6-96c1-0edb20b09b0d,,1500,250,stim,,"<div class = centerbox><div class = stroop-stim style = ""color:red"">BLUE</div></div>","66,71,82",1500,test,,,incongruent,TRUE,82,,,500,red,blue,-1,-1,poldrack-single-stim,569,677685,0.0-568.0,8a41bab5-59fd-41d6-96c1-0edb20b09b0d,,500,500,fixation,,<div class = centerbox><div class = fixation>+</div></div>,none,500,test,,,,,,,,,,,470,66,poldrack-categorize,570,680198,0.0-569.0,8a41bab5-59fd-41d6-96c1-0edb20b09b0d,,1500,250,stim,,"<div class = centerbox><div class = stroop-stim style = ""color:blue"">BLUE</div></div>","66,71,82",1500,test,,,congruent,TRUE,66,,,500,blue,blue,-1,-1,poldrack-single-stim,571,680958,0.0-570.0,8a41bab5-59fd-41d6-96c1-0edb20b09b0d,,500,500,fixation,,<div class = centerbox><div class = fixation>+</div></div>,none,500,test,,,,,,,,,,,508,66,poldrack-categorize,572,683472,0.0-571.0,8a41bab5-59fd-41d6-96c1-0edb20b09b0d,,1500,250,stim,,"<div class = centerbox><div class = stroop-stim style = ""color:blue"">BLUE</div></div>","66,71,82",1500,test,,,congruent,TRUE,66,,,500,blue,blue,-1,-1,poldrack-single-stim,573,684232,0.0-572.0,8a41bab5-59fd-41d6-96c1-0edb20b09b0d,,500,500,fixation,,<div class = centerbox><div class = fixation>+</div></div>,none,500,test,,,,,,,,,,,658,82,poldrack-categorize,574,686745,0.0-573.0,8a41bab5-59fd-41d6-96c1-0edb20b09b0d,,1500,250,stim,,"<div class = centerbox><div class = stroop-stim style = ""color:red"">GREEN</div></div>","66,71,82",1500,test,,,incongruent,TRUE,82,,,500,red,green,-1,-1,poldrack-single-stim,575,687506,0.0-574.0,8a41bab5-59fd-41d6-96c1-0edb20b09b0d,,500,500,fixation,,<div class = centerbox><div class = fixation>+</div></div>,none,500,test,,,,,,,,,,,584,82,poldrack-categorize,576,690019,0.0-575.0,8a41bab5-59fd-41d6-96c1-0edb20b09b0d,,1500,250,stim,,"<div class = centerbox><div class = stroop-stim style = ""color:red"">GREEN</div></div>","66,71,82",1500,test,,,incongruent,TRUE,82,,,500,red,green,-1,-1,poldrack-single-stim,577,690780,0.0-576.0,8a41bab5-59fd-41d6-96c1-0edb20b09b0d,,500,500,fixation,,<div class = centerbox><div class = fixation>+</div></div>,none,500,test,,,,,,,,,,,518,82,poldrack-categorize,578,693293,0.0-577.0,8a41bab5-59fd-41d6-96c1-0edb20b09b0d,,1500,250,stim,,"<div class = centerbox><div class = stroop-stim style = ""color:red"">RED</div></div>","66,71,82",1500,test,,,congruent,TRUE,82,,,500,red,red,-1,-1,poldrack-single-stim,579,694053,0.0-578.0,8a41bab5-59fd-41d6-96c1-0edb20b09b0d,,500,500,fixation,,<div class = centerbox><div class = fixation>+</div></div>,none,500,test,,,,,,,,,,,654,71,poldrack-categorize,580,696567,0.0-579.0,8a41bab5-59fd-41d6-96c1-0edb20b09b0d,,1500,250,stim,,"<div class = centerbox><div class = stroop-stim style = ""color:green"">GREEN</div></div>","66,71,82",1500,test,,,congruent,TRUE,71,,,500,green,green,-1,-1,poldrack-single-stim,581,697327,0.0-580.0,8a41bab5-59fd-41d6-96c1-0edb20b09b0d,,500,500,fixation,,<div class = centerbox><div class = fixation>+</div></div>,none,500,test,,,,,,,,,,,946,82,poldrack-categorize,582,699841,0.0-581.0,8a41bab5-59fd-41d6-96c1-0edb20b09b0d,,1500,250,stim,,"<div class = centerbox><div class = stroop-stim style = ""color:red"">RED</div></div>","66,71,82",1500,test,,,congruent,TRUE,82,,,500,red,red,-1,-1,poldrack-single-stim,583,700601,0.0-582.0,8a41bab5-59fd-41d6-96c1-0edb20b09b0d,,500,500,fixation,,<div class = centerbox><div class = fixation>+</div></div>,none,500,test,,,,,,,,,,,639,71,poldrack-categorize,584,703114,0.0-583.0,8a41bab5-59fd-41d6-96c1-0edb20b09b0d,,1500,250,stim,,"<div class = centerbox><div class = stroop-stim style = ""color:blue"">BLUE</div></div>","66,71,82",1500,test,,,congruent,FALSE,66,,,500,blue,blue,-1,-1,poldrack-single-stim,585,703875,0.0-584.0,8a41bab5-59fd-41d6-96c1-0edb20b09b0d,,500,500,fixation,,<div class = centerbox><div class = fixation>+</div></div>,none,500,test,,,,,,,,,,,461,82,poldrack-categorize,586,706388,0.0-585.0,8a41bab5-59fd-41d6-96c1-0edb20b09b0d,,1500,250,stim,,"<div class = centerbox><div class = stroop-stim style = ""color:red"">RED</div></div>","66,71,82",1500,test,,,congruent,TRUE,82,,,500,red,red,-1,-1,poldrack-single-stim,587,707149,0.0-586.0,8a41bab5-59fd-41d6-96c1-0edb20b09b0d,,500,500,fixation,,<div class = centerbox><div class = fixation>+</div></div>,none,500,test,,,,,,,,,,,1101,66,poldrack-categorize,588,709662,0.0-587.0,8a41bab5-59fd-41d6-96c1-0edb20b09b0d,,1500,250,stim,,"<div class = centerbox><div class = stroop-stim style = ""color:blue"">RED</div></div>","66,71,82",1500,test,,,incongruent,TRUE,66,,,500,blue,red,-1,-1,poldrack-single-stim,589,710423,0.0-588.0,8a41bab5-59fd-41d6-96c1-0edb20b09b0d,,500,500,fixation,,<div class = centerbox><div class = fixation>+</div></div>,none,500,test,,,,,,,,,,,578,82,poldrack-categorize,590,712936,0.0-589.0,8a41bab5-59fd-41d6-96c1-0edb20b09b0d,,1500,250,stim,,"<div class = centerbox><div class = stroop-stim style = ""color:red"">RED</div></div>","66,71,82",1500,test,,,congruent,TRUE,82,,,500,red,red,-1,-1,poldrack-single-stim,591,713696,0.0-590.0,8a41bab5-59fd-41d6-96c1-0edb20b09b0d,,500,500,fixation,,<div class = centerbox><div class = fixation>+</div></div>,none,500,test,,,,,,,,,,,720,71,poldrack-categorize,592,716210,0.0-591.0,8a41bab5-59fd-41d6-96c1-0edb20b09b0d,,1500,250,stim,,"<div class = centerbox><div class = stroop-stim style = ""color:green"">BLUE</div></div>","66,71,82",1500,test,,,incongruent,TRUE,71,,,500,green,blue,-1,-1,poldrack-single-stim,593,716970,0.0-592.0,8a41bab5-59fd-41d6-96c1-0edb20b09b0d,,500,500,fixation,,<div class = centerbox><div class = fixation>+</div></div>,none,500,test,,,,,,,,,,,589,71,poldrack-categorize,594,719482,0.0-593.0,8a41bab5-59fd-41d6-96c1-0edb20b09b0d,,1500,250,stim,,"<div class = centerbox><div class = stroop-stim style = ""color:green"">RED</div></div>","66,71,82",1500,test,,,incongruent,TRUE,71,,,500,green,red,-1,-1,poldrack-single-stim,595,720238,0.0-594.0,8a41bab5-59fd-41d6-96c1-0edb20b09b0d,,500,500,fixation,,<div class = centerbox><div class = fixation>+</div></div>,none,500,test,,,,,,,,,,,770,66,poldrack-categorize,596,722751,0.0-595.0,8a41bab5-59fd-41d6-96c1-0edb20b09b0d,,1500,250,stim,,"<div class = centerbox><div class = stroop-stim style = ""color:blue"">GREEN</div></div>","66,71,82",1500,test,,,incongruent,TRUE,66,,,500,blue,green,-1,-1,poldrack-single-stim,597,723512,0.0-596.0,8a41bab5-59fd-41d6-96c1-0edb20b09b0d,,500,500,fixation,,<div class = centerbox><div class = fixation>+</div></div>,none,500,test,,,,,,,,,,,695,71,poldrack-categorize,598,726025,0.0-597.0,8a41bab5-59fd-41d6-96c1-0edb20b09b0d,,1500,250,stim,,"<div class = centerbox><div class = stroop-stim style = ""color:green"">RED</div></div>","66,71,82",1500,test,,,incongruent,TRUE,71,,,500,green,red,-1,-1,poldrack-single-stim,599,726786,0.0-598.0,8a41bab5-59fd-41d6-96c1-0edb20b09b0d,,500,500,fixation,,<div class = centerbox><div class = fixation>+</div></div>,none,500,test,,,,,,,,,,,910,82,poldrack-categorize,600,729299,0.0-599.0,8a41bab5-59fd-41d6-96c1-0edb20b09b0d,,1500,250,stim,,"<div class = centerbox><div class = stroop-stim style = ""color:red"">BLUE</div></div>","66,71,82",1500,test,,,incongruent,TRUE,82,,,500,red,blue,-1,-1,poldrack-single-stim,601,730060,0.0-600.0,8a41bab5-59fd-41d6-96c1-0edb20b09b0d,,500,500,fixation,,<div class = centerbox><div class = fixation>+</div></div>,none,500,test,,,,,,,,,,,724,71,poldrack-categorize,602,732573,0.0-601.0,8a41bab5-59fd-41d6-96c1-0edb20b09b0d,,1500,250,stim,,"<div class = centerbox><div class = stroop-stim style = ""color:green"">RED</div></div>","66,71,82",1500,test,,,incongruent,TRUE,71,,,500,green,red,-1,-1,poldrack-single-stim,603,733333,0.0-602.0,8a41bab5-59fd-41d6-96c1-0edb20b09b0d,,500,500,fixation,,<div class = centerbox><div class = fixation>+</div></div>,none,500,test,,,,,,,,,,,1035,82,poldrack-categorize,604,735847,0.0-603.0,8a41bab5-59fd-41d6-96c1-0edb20b09b0d,,1500,250,stim,,"<div class = centerbox><div class = stroop-stim style = ""color:red"">BLUE</div></div>","66,71,82",1500,test,,,incongruent,TRUE,82,,,500,red,blue,-1,-1,poldrack-single-stim,605,736607,0.0-604.0,8a41bab5-59fd-41d6-96c1-0edb20b09b0d,,500,500,fixation,,<div class = centerbox><div class = fixation>+</div></div>,none,500,test,,,,,,,,,,,959,71,poldrack-categorize,606,739120,0.0-605.0,8a41bab5-59fd-41d6-96c1-0edb20b09b0d,,1500,250,stim,,"<div class = centerbox><div class = stroop-stim style = ""color:green"">RED</div></div>","66,71,82",1500,test,,,incongruent,TRUE,71,,,500,green,red,-1,-1,poldrack-single-stim,607,739881,0.0-606.0,8a41bab5-59fd-41d6-96c1-0edb20b09b0d,,500,500,fixation,,<div class = centerbox><div class = fixation>+</div></div>,none,500,test,,,,,,,,,,,549,71,poldrack-categorize,608,742394,0.0-607.0,8a41bab5-59fd-41d6-96c1-0edb20b09b0d,,1500,250,stim,,"<div class = centerbox><div class = stroop-stim style = ""color:green"">GREEN</div></div>","66,71,82",1500,test,,,congruent,TRUE,71,,,500,green,green,-1,-1,poldrack-single-stim,609,743155,0.0-608.0,8a41bab5-59fd-41d6-96c1-0edb20b09b0d,,500,500,fixation,,<div class = centerbox><div class = fixation>+</div></div>,none,500,test,,,,,,,,,,,1036,71,poldrack-categorize,610,745668,0.0-609.0,8a41bab5-59fd-41d6-96c1-0edb20b09b0d,,1500,250,stim,,"<div class = centerbox><div class = stroop-stim style = ""color:green"">GREEN</div></div>","66,71,82",1500,test,,,congruent,TRUE,71,,,500,green,green,-1,-1,poldrack-single-stim,611,746429,0.0-610.0,8a41bab5-59fd-41d6-96c1-0edb20b09b0d,,500,500,fixation,,<div class = centerbox><div class = fixation>+</div></div>,none,500,test,,,,,,,,,,,722,66,poldrack-categorize,612,748942,0.0-611.0,8a41bab5-59fd-41d6-96c1-0edb20b09b0d,,1500,250,stim,,"<div class = centerbox><div class = stroop-stim style = ""color:blue"">GREEN</div></div>","66,71,82",1500,test,,,incongruent,TRUE,66,,,500,blue,green,-1,-1,poldrack-single-stim,613,749702,0.0-612.0,8a41bab5-59fd-41d6-96c1-0edb20b09b0d,,500,500,fixation,,<div class = centerbox><div class = fixation>+</div></div>,none,500,test,,,,,,,,,,,544,71,poldrack-categorize,614,752216,0.0-613.0,8a41bab5-59fd-41d6-96c1-0edb20b09b0d,,1500,250,stim,,"<div class = centerbox><div class = stroop-stim style = ""color:green"">GREEN</div></div>","66,71,82",1500,test,,,congruent,TRUE,71,,,500,green,green,-1,-1,poldrack-single-stim,615,752976,0.0-614.0,8a41bab5-59fd-41d6-96c1-0edb20b09b0d,,500,500,fixation,,<div class = centerbox><div class = fixation>+</div></div>,none,500,test,,,,,,,,,,,805,66,poldrack-categorize,616,755486,0.0-615.0,8a41bab5-59fd-41d6-96c1-0edb20b09b0d,,1500,250,stim,,"<div class = centerbox><div class = stroop-stim style = ""color:blue"">RED</div></div>","66,71,82",1500,test,,,incongruent,TRUE,66,,,500,blue,red,-1,-1,poldrack-single-stim,617,756244,0.0-616.0,8a41bab5-59fd-41d6-96c1-0edb20b09b0d,,500,500,fixation,,<div class = centerbox><div class = fixation>+</div></div>,none,500,test,,,,,,,,,,,601,66,poldrack-categorize,618,758754,0.0-617.0,8a41bab5-59fd-41d6-96c1-0edb20b09b0d,,1500,250,stim,,"<div class = centerbox><div class = stroop-stim style = ""color:blue"">BLUE</div></div>","66,71,82",1500,test,,,congruent,TRUE,66,,,500,blue,blue,-1,-1,poldrack-single-stim,619,759512,0.0-618.0,8a41bab5-59fd-41d6-96c1-0edb20b09b0d,,500,500,fixation,,<div class = centerbox><div class = fixation>+</div></div>,none,500,test,,,,,,,,,,,709,71,poldrack-categorize,620,762025,0.0-619.0,8a41bab5-59fd-41d6-96c1-0edb20b09b0d,,1500,250,stim,,"<div class = centerbox><div class = stroop-stim style = ""color:green"">BLUE</div></div>","66,71,82",1500,test,,,incongruent,TRUE,71,,,500,green,blue,-1,-1,poldrack-single-stim,621,762786,0.0-620.0,8a41bab5-59fd-41d6-96c1-0edb20b09b0d,,500,500,fixation,,<div class = centerbox><div class = fixation>+</div></div>,none,500,test,,,,,,,,,,,636,71,poldrack-categorize,622,765299,0.0-621.0,8a41bab5-59fd-41d6-96c1-0edb20b09b0d,,1500,250,stim,,"<div class = centerbox><div class = stroop-stim style = ""color:green"">GREEN</div></div>","66,71,82",1500,test,,,congruent,TRUE,71,,,500,green,green,-1,-1,poldrack-single-stim,623,766060,0.0-622.0,8a41bab5-59fd-41d6-96c1-0edb20b09b0d,,500,500,fixation,,<div class = centerbox><div class = fixation>+</div></div>,none,500,test,,,,,,,,,,,553,71,poldrack-categorize,624,768573,0.0-623.0,8a41bab5-59fd-41d6-96c1-0edb20b09b0d,,1500,250,stim,,"<div class = centerbox><div class = stroop-stim style = ""color:green"">GREEN</div></div>","66,71,82",1500,test,,,congruent,TRUE,71,,,500,green,green,-1,-1,poldrack-single-stim,625,769331,0.0-624.0,8a41bab5-59fd-41d6-96c1-0edb20b09b0d,,500,500,fixation,,<div class = centerbox><div class = fixation>+</div></div>,none,500,test,,,,,,,,,,,603,66,poldrack-categorize,626,771841,0.0-625.0,8a41bab5-59fd-41d6-96c1-0edb20b09b0d,,1500,250,stim,,"<div class = centerbox><div class = stroop-stim style = ""color:blue"">BLUE</div></div>","66,71,82",1500,test,,,congruent,TRUE,66,,,500,blue,blue,-1,-1,poldrack-single-stim,627,772602,0.0-626.0,8a41bab5-59fd-41d6-96c1-0edb20b09b0d,,500,500,fixation,,<div class = centerbox><div class = fixation>+</div></div>,none,500,test,,,,,,,,,,,635,66,poldrack-categorize,628,775115,0.0-627.0,8a41bab5-59fd-41d6-96c1-0edb20b09b0d,,1500,250,stim,,"<div class = centerbox><div class = stroop-stim style = ""color:blue"">BLUE</div></div>","66,71,82",1500,test,,,congruent,TRUE,66,,,500,blue,blue,-1,-1,poldrack-single-stim,629,775875,0.0-628.0,8a41bab5-59fd-41d6-96c1-0edb20b09b0d,,500,500,fixation,,<div class = centerbox><div class = fixation>+</div></div>,none,500,test,,,,,,,,,,,889,66,poldrack-categorize,630,778389,0.0-629.0,8a41bab5-59fd-41d6-96c1-0edb20b09b0d,,1500,250,stim,,"<div class = centerbox><div class = stroop-stim style = ""color:blue"">RED</div></div>","66,71,82",1500,test,,,incongruent,TRUE,66,,,500,blue,red,-1,-1,poldrack-single-stim,631,779149,0.0-630.0,8a41bab5-59fd-41d6-96c1-0edb20b09b0d,,500,500,fixation,,<div class = centerbox><div class = fixation>+</div></div>,none,500,test,,,,,,,,,,,502,66,poldrack-categorize,632,781663,0.0-631.0,8a41bab5-59fd-41d6-96c1-0edb20b09b0d,,1500,250,stim,,"<div class = centerbox><div class = stroop-stim style = ""color:blue"">BLUE</div></div>","66,71,82",1500,test,,,congruent,TRUE,66,,,500,blue,blue,36413,,survey-text,633,818332,0.0-633.0,8a41bab5-59fd-41d6-96c1-0edb20b09b0d,,,,post task questions,,,,,,,,,,,"{""Q0"":""I was asked to read the color of the ink not what the word said."",""Q1"":""None\n""}",,,,,91215,13,poldrack-text,634,910549,0.0-634.0,8a41bab5-59fd-41d6-96c1-0edb20b09b0d,<div class = centerbox><p class = center-block-text>Thanks for completing this task!</p><p class = center-block-text>Press <strong>enter</strong> to continue.</p></div>,91215,0,end,,,,,,,,,,,,stroop,,,,TRUE2180,13,text,635,912773,0.0-635.0,8a41bab5-59fd-41d6-96c1-0edb20b09b0d,,,,,,,,,,,,,,,,,,,,