"rt","key_press","trial_type","trial_index","time_elapsed","internal_node_id","subject","text","block_duration","timing_post_trial","trial_id","view_history","stimulus","possible_responses","stim_duration","exp_stage","correct","correct_response","feedback_duration","condition","stim_color","stim_word","responses","exp_id","credit_var"
"1600","13","text","0","1602","0.0-0.0","177e8ac6-eb67-4768-87fc-6c91c74cae7f","","","","","","","","","","","","","","","","","",""
"2499","13","poldrack-text","1","5105","0.0-1.0-0.0","177e8ac6-eb67-4768-87fc-6c91c74cae7f","<div class = centerbox><p class = center-block-text>Welcome to the experiment. This experiment will take about 8 minutes. Press <strong>enter</strong> to begin.</p></div>","2499","0","instruction","","","","","","","","","","","","","",""
"8831","","poldrack-instructions","2","13937","0.0-1.0-1.0","177e8ac6-eb67-4768-87fc-6c91c74cae7f","","","","instruction","[{""page_index"":0,""viewing_time"":8831}]","","","","","","","","","","","","",""
"2571","13","poldrack-text","3","17512","0.0-2.0","177e8ac6-eb67-4768-87fc-6c91c74cae7f","<div class = centerbox><p class = block-text>We will start with a few practice trials. Remember, press the key corresponding to the <strong>ink</strong> color of the word: ""r"" for words colored red, ""b"" for words colored blue, and ""g"" for words colored green.</p><p class = block-text>Press <strong>enter</strong> to begin practice.</p></div>","2571","1000","practice_intro","","","","","","","","","","","","","",""
"-1","-1","poldrack-single-stim","4","19019","0.0-3.0","177e8ac6-eb67-4768-87fc-6c91c74cae7f","","500","500","fixation","","<div class = centerbox><div class = fixation>+</div></div>","none","500","practice","","","","","","","","",""
"540","71","poldrack-categorize","5","21527","0.0-4.0","177e8ac6-eb67-4768-87fc-6c91c74cae7f","","1500","250","stim","","<div class = centerbox><div class = stroop-stim style = ""color:green"">GREEN</div></div>","66,71,82","1500","practice","true","71","500","congruent","green","green","","",""
"-1","-1","poldrack-single-stim","6","22286","0.0-5.0","177e8ac6-eb67-4768-87fc-6c91c74cae7f","","500","500","fixation","","<div class = centerbox><div class = fixation>+</div></div>","none","500","practice","","","","","","","","",""
"800","71","poldrack-categorize","7","24799","0.0-6.0","177e8ac6-eb67-4768-87fc-6c91c74cae7f","","1500","250","stim","","<div class = centerbox><div class = stroop-stim style = ""color:green"">BLUE</div></div>","66,71,82","1500","practice","true","71","500","incongruent","green","blue","","",""
"-1","-1","poldrack-single-stim","8","25558","0.0-7.0","177e8ac6-eb67-4768-87fc-6c91c74cae7f","","500","500","fixation","","<div class = centerbox><div class = fixation>+</div></div>","none","500","practice","","","","","","","","",""
"721","82","poldrack-categorize","9","28072","0.0-8.0","177e8ac6-eb67-4768-87fc-6c91c74cae7f","","1500","250","stim","","<div class = centerbox><div class = stroop-stim style = ""color:red"">BLUE</div></div>","66,71,82","1500","practice","true","82","500","incongruent","red","blue","","",""
"-1","-1","poldrack-single-stim","10","28833","0.0-9.0","177e8ac6-eb67-4768-87fc-6c91c74cae7f","","500","500","fixation","","<div class = centerbox><div class = fixation>+</div></div>","none","500","practice","","","","","","","","",""
"565","82","poldrack-categorize","11","31345","0.0-10.0","177e8ac6-eb67-4768-87fc-6c91c74cae7f","","1500","250","stim","","<div class = centerbox><div class = stroop-stim style = ""color:red"">RED</div></div>","66,71,82","1500","practice","true","82","500","congruent","red","red","","",""
"-1","-1","poldrack-single-stim","12","32101","0.0-11.0","177e8ac6-eb67-4768-87fc-6c91c74cae7f","","500","500","fixation","","<div class = centerbox><div class = fixation>+</div></div>","none","500","practice","","","","","","","","",""
"640","82","poldrack-categorize","13","34614","0.0-12.0","177e8ac6-eb67-4768-87fc-6c91c74cae7f","","1500","250","stim","","<div class = centerbox><div class = stroop-stim style = ""color:red"">BLUE</div></div>","66,71,82","1500","practice","true","82","500","incongruent","red","blue","","",""
"-1","-1","poldrack-single-stim","14","35375","0.0-13.0","177e8ac6-eb67-4768-87fc-6c91c74cae7f","","500","500","fixation","","<div class = centerbox><div class = fixation>+</div></div>","none","500","practice","","","","","","","","",""
"790","66","poldrack-categorize","15","37888","0.0-14.0","177e8ac6-eb67-4768-87fc-6c91c74cae7f","","1500","250","stim","","<div class = centerbox><div class = stroop-stim style = ""color:blue"">BLUE</div></div>","66,71,82","1500","practice","true","66","500","congruent","blue","blue","","",""
"-1","-1","poldrack-single-stim","16","38649","0.0-15.0","177e8ac6-eb67-4768-87fc-6c91c74cae7f","","500","500","fixation","","<div class = centerbox><div class = fixation>+</div></div>","none","500","practice","","","","","","","","",""
"700","71","poldrack-categorize","17","41162","0.0-16.0","177e8ac6-eb67-4768-87fc-6c91c74cae7f","","1500","250","stim","","<div class = centerbox><div class = stroop-stim style = ""color:blue"">RED</div></div>","66,71,82","1500","practice","false","66","500","incongruent","blue","red","","",""
"-1","-1","poldrack-single-stim","18","41919","0.0-17.0","177e8ac6-eb67-4768-87fc-6c91c74cae7f","","500","500","fixation","","<div class = centerbox><div class = fixation>+</div></div>","none","500","practice","","","","","","","","",""
"504","82","poldrack-categorize","19","44430","0.0-18.0","177e8ac6-eb67-4768-87fc-6c91c74cae7f","","1500","250","stim","","<div class = centerbox><div class = stroop-stim style = ""color:red"">RED</div></div>","66,71,82","1500","practice","true","82","500","congruent","red","red","","",""
"-1","-1","poldrack-single-stim","20","45191","0.0-19.0","177e8ac6-eb67-4768-87fc-6c91c74cae7f","","500","500","fixation","","<div class = centerbox><div class = fixation>+</div></div>","none","500","practice","","","","","","","","",""
"575","71","poldrack-categorize","21","47704","0.0-20.0","177e8ac6-eb67-4768-87fc-6c91c74cae7f","","1500","250","stim","","<div class = centerbox><div class = stroop-stim style = ""color:green"">GREEN</div></div>","66,71,82","1500","practice","true","71","500","congruent","green","green","","",""
"-1","-1","poldrack-single-stim","22","48464","0.0-21.0","177e8ac6-eb67-4768-87fc-6c91c74cae7f","","500","500","fixation","","<div class = centerbox><div class = fixation>+</div></div>","none","500","practice","","","","","","","","",""
"517","71","poldrack-categorize","23","50978","0.0-22.0","177e8ac6-eb67-4768-87fc-6c91c74cae7f","","1500","250","stim","","<div class = centerbox><div class = stroop-stim style = ""color:green"">GREEN</div></div>","66,71,82","1500","practice","true","71","500","congruent","green","green","","",""
"-1","-1","poldrack-single-stim","24","51734","0.0-23.0","177e8ac6-eb67-4768-87fc-6c91c74cae7f","","500","500","fixation","","<div class = centerbox><div class = fixation>+</div></div>","none","500","practice","","","","","","","","",""
"582","66","poldrack-categorize","25","54246","0.0-24.0","177e8ac6-eb67-4768-87fc-6c91c74cae7f","","1500","250","stim","","<div class = centerbox><div class = stroop-stim style = ""color:blue"">GREEN</div></div>","66,71,82","1500","practice","true","66","500","incongruent","blue","green","","",""
"-1","-1","poldrack-single-stim","26","55006","0.0-25.0","177e8ac6-eb67-4768-87fc-6c91c74cae7f","","500","500","fixation","","<div class = centerbox><div class = fixation>+</div></div>","none","500","practice","","","","","","","","",""
"502","82","poldrack-categorize","27","57519","0.0-26.0","177e8ac6-eb67-4768-87fc-6c91c74cae7f","","1500","250","stim","","<div class = centerbox><div class = stroop-stim style = ""color:red"">GREEN</div></div>","66,71,82","1500","practice","true","82","500","incongruent","red","green","","",""
"-1","-1","poldrack-single-stim","28","58278","0.0-27.0","177e8ac6-eb67-4768-87fc-6c91c74cae7f","","500","500","fixation","","<div class = centerbox><div class = fixation>+</div></div>","none","500","practice","","","","","","","","",""
"482","82","poldrack-categorize","29","60784","0.0-28.0","177e8ac6-eb67-4768-87fc-6c91c74cae7f","","1500","250","stim","","<div class = centerbox><div class = stroop-stim style = ""color:red"">RED</div></div>","66,71,82","1500","practice","true","82","500","congruent","red","red","","",""
"-1","-1","poldrack-single-stim","30","61542","0.0-29.0","177e8ac6-eb67-4768-87fc-6c91c74cae7f","","500","500","fixation","","<div class = centerbox><div class = fixation>+</div></div>","none","500","practice","","","","","","","","",""
"439","71","poldrack-categorize","31","64055","0.0-30.0","177e8ac6-eb67-4768-87fc-6c91c74cae7f","","1500","250","stim","","<div class = centerbox><div class = stroop-stim style = ""color:green"">BLUE</div></div>","66,71,82","1500","practice","true","71","500","incongruent","green","blue","","",""
"-1","-1","poldrack-single-stim","32","64816","0.0-31.0","177e8ac6-eb67-4768-87fc-6c91c74cae7f","","500","500","fixation","","<div class = centerbox><div class = fixation>+</div></div>","none","500","practice","","","","","","","","",""
"416","66","poldrack-categorize","33","67323","0.0-32.0","177e8ac6-eb67-4768-87fc-6c91c74cae7f","","1500","250","stim","","<div class = centerbox><div class = stroop-stim style = ""color:blue"">BLUE</div></div>","66,71,82","1500","practice","true","66","500","congruent","blue","blue","","",""
"-1","-1","poldrack-single-stim","34","68084","0.0-33.0","177e8ac6-eb67-4768-87fc-6c91c74cae7f","","500","500","fixation","","<div class = centerbox><div class = fixation>+</div></div>","none","500","practice","","","","","","","","",""
"791","71","poldrack-categorize","35","70597","0.0-34.0","177e8ac6-eb67-4768-87fc-6c91c74cae7f","","1500","250","stim","","<div class = centerbox><div class = stroop-stim style = ""color:green"">GREEN</div></div>","66,71,82","1500","practice","true","71","500","congruent","green","green","","",""
"-1","-1","poldrack-single-stim","36","71358","0.0-35.0","177e8ac6-eb67-4768-87fc-6c91c74cae7f","","500","500","fixation","","<div class = centerbox><div class = fixation>+</div></div>","none","500","practice","","","","","","","","",""
"581","66","poldrack-categorize","37","73871","0.0-36.0","177e8ac6-eb67-4768-87fc-6c91c74cae7f","","1500","250","stim","","<div class = centerbox><div class = stroop-stim style = ""color:blue"">BLUE</div></div>","66,71,82","1500","practice","true","66","500","congruent","blue","blue","","",""
"-1","-1","poldrack-single-stim","38","74632","0.0-37.0","177e8ac6-eb67-4768-87fc-6c91c74cae7f","","500","500","fixation","","<div class = centerbox><div class = fixation>+</div></div>","none","500","practice","","","","","","","","",""
"387","82","poldrack-categorize","39","77145","0.0-38.0","177e8ac6-eb67-4768-87fc-6c91c74cae7f","","1500","250","stim","","<div class = centerbox><div class = stroop-stim style = ""color:red"">GREEN</div></div>","66,71,82","1500","practice","true","82","500","incongruent","red","green","","",""
"-1","-1","poldrack-single-stim","40","77903","0.0-39.0","177e8ac6-eb67-4768-87fc-6c91c74cae7f","","500","500","fixation","","<div class = centerbox><div class = fixation>+</div></div>","none","500","practice","","","","","","","","",""
"479","71","poldrack-categorize","41","80413","0.0-40.0","177e8ac6-eb67-4768-87fc-6c91c74cae7f","","1500","250","stim","","<div class = centerbox><div class = stroop-stim style = ""color:green"">RED</div></div>","66,71,82","1500","practice","true","71","500","incongruent","green","red","","",""
"-1","-1","poldrack-single-stim","42","81173","0.0-41.0","177e8ac6-eb67-4768-87fc-6c91c74cae7f","","500","500","fixation","","<div class = centerbox><div class = fixation>+</div></div>","none","500","practice","","","","","","","","",""
"893","66","poldrack-categorize","43","83687","0.0-42.0","177e8ac6-eb67-4768-87fc-6c91c74cae7f","","1500","250","stim","","<div class = centerbox><div class = stroop-stim style = ""color:blue"">RED</div></div>","66,71,82","1500","practice","true","66","500","incongruent","blue","red","","",""
"-1","-1","poldrack-single-stim","44","84442","0.0-43.0","177e8ac6-eb67-4768-87fc-6c91c74cae7f","","500","500","fixation","","<div class = centerbox><div class = fixation>+</div></div>","none","500","practice","","","","","","","","",""
"641","82","poldrack-categorize","45","86955","0.0-44.0","177e8ac6-eb67-4768-87fc-6c91c74cae7f","","1500","250","stim","","<div class = centerbox><div class = stroop-stim style = ""color:red"">RED</div></div>","66,71,82","1500","practice","true","82","500","congruent","red","red","","",""
"-1","-1","poldrack-single-stim","46","87715","0.0-45.0","177e8ac6-eb67-4768-87fc-6c91c74cae7f","","500","500","fixation","","<div class = centerbox><div class = fixation>+</div></div>","none","500","practice","","","","","","","","",""
"607","71","poldrack-categorize","47","90226","0.0-46.0","177e8ac6-eb67-4768-87fc-6c91c74cae7f","","1500","250","stim","","<div class = centerbox><div class = stroop-stim style = ""color:green"">RED</div></div>","66,71,82","1500","practice","true","71","500","incongruent","green","red","","",""
"-1","-1","poldrack-single-stim","48","90983","0.0-47.0","177e8ac6-eb67-4768-87fc-6c91c74cae7f","","500","500","fixation","","<div class = centerbox><div class = fixation>+</div></div>","none","500","practice","","","","","","","","",""
"667","66","poldrack-categorize","49","93496","0.0-48.0","177e8ac6-eb67-4768-87fc-6c91c74cae7f","","1500","250","stim","","<div class = centerbox><div class = stroop-stim style = ""color:blue"">GREEN</div></div>","66,71,82","1500","practice","true","66","500","incongruent","blue","green","","",""
"-1","-1","poldrack-single-stim","50","94257","0.0-49.0","177e8ac6-eb67-4768-87fc-6c91c74cae7f","","500","500","fixation","","<div class = centerbox><div class = fixation>+</div></div>","none","500","practice","","","","","","","","",""
"496","66","poldrack-categorize","51","96770","0.0-50.0","177e8ac6-eb67-4768-87fc-6c91c74cae7f","","1500","250","stim","","<div class = centerbox><div class = stroop-stim style = ""color:blue"">BLUE</div></div>","66,71,82","1500","practice","true","66","500","congruent","blue","blue","","",""
"3912","13","poldrack-text","52","100938","0.0-52.0","177e8ac6-eb67-4768-87fc-6c91c74cae7f","<div class = centerbox><p class = center-block-text>We will now start the test. Respond exactly like you did during practice.</p><p class = center-block-text>Press <strong>enter</strong> to begin the test.</p></div>","3912","1000","test_intro","","","","","","","","","","","","","",""
"-1","-1","poldrack-single-stim","53","102447","0.0-53.0","177e8ac6-eb67-4768-87fc-6c91c74cae7f","","500","500","fixation","","<div class = centerbox><div class = fixation>+</div></div>","none","500","test","","","","","","","","",""
"421","82","poldrack-categorize","54","104951","0.0-54.0","177e8ac6-eb67-4768-87fc-6c91c74cae7f","","1500","250","stim","","<div class = centerbox><div class = stroop-stim style = ""color:red"">BLUE</div></div>","66,71,82","1500","test","true","82","500","incongruent","red","blue","","",""
"-1","-1","poldrack-single-stim","55","105709","0.0-55.0","177e8ac6-eb67-4768-87fc-6c91c74cae7f","","500","500","fixation","","<div class = centerbox><div class = fixation>+</div></div>","none","500","test","","","","","","","","",""
"516","66","poldrack-categorize","56","108223","0.0-56.0","177e8ac6-eb67-4768-87fc-6c91c74cae7f","","1500","250","stim","","<div class = centerbox><div class = stroop-stim style = ""color:blue"">BLUE</div></div>","66,71,82","1500","test","true","66","500","congruent","blue","blue","","",""
"-1","-1","poldrack-single-stim","57","108982","0.0-57.0","177e8ac6-eb67-4768-87fc-6c91c74cae7f","","500","500","fixation","","<div class = centerbox><div class = fixation>+</div></div>","none","500","test","","","","","","","","",""
"445","82","poldrack-categorize","58","111491","0.0-58.0","177e8ac6-eb67-4768-87fc-6c91c74cae7f","","1500","250","stim","","<div class = centerbox><div class = stroop-stim style = ""color:red"">BLUE</div></div>","66,71,82","1500","test","true","82","500","incongruent","red","blue","","",""
"-1","-1","poldrack-single-stim","59","112246","0.0-59.0","177e8ac6-eb67-4768-87fc-6c91c74cae7f","","500","500","fixation","","<div class = centerbox><div class = fixation>+</div></div>","none","500","test","","","","","","","","",""
"523","82","poldrack-categorize","60","114759","0.0-60.0","177e8ac6-eb67-4768-87fc-6c91c74cae7f","","1500","250","stim","","<div class = centerbox><div class = stroop-stim style = ""color:red"">GREEN</div></div>","66,71,82","1500","test","true","82","500","incongruent","red","green","","",""
"-1","-1","poldrack-single-stim","61","115519","0.0-61.0","177e8ac6-eb67-4768-87fc-6c91c74cae7f","","500","500","fixation","","<div class = centerbox><div class = fixation>+</div></div>","none","500","test","","","","","","","","",""
"370","82","poldrack-categorize","62","118033","0.0-62.0","177e8ac6-eb67-4768-87fc-6c91c74cae7f","","1500","250","stim","","<div class = centerbox><div class = stroop-stim style = ""color:red"">RED</div></div>","66,71,82","1500","test","true","82","500","congruent","red","red","","",""
"-1","-1","poldrack-single-stim","63","118793","0.0-63.0","177e8ac6-eb67-4768-87fc-6c91c74cae7f","","500","500","fixation","","<div class = centerbox><div class = fixation>+</div></div>","none","500","test","","","","","","","","",""
"519","71","poldrack-categorize","64","121306","0.0-64.0","177e8ac6-eb67-4768-87fc-6c91c74cae7f","","1500","250","stim","","<div class = centerbox><div class = stroop-stim style = ""color:green"">BLUE</div></div>","66,71,82","1500","test","true","71","500","incongruent","green","blue","","",""
"-1","-1","poldrack-single-stim","65","122067","0.0-65.0","177e8ac6-eb67-4768-87fc-6c91c74cae7f","","500","500","fixation","","<div class = centerbox><div class = fixation>+</div></div>","none","500","test","","","","","","","","",""
"493","71","poldrack-categorize","66","124580","0.0-66.0","177e8ac6-eb67-4768-87fc-6c91c74cae7f","","1500","250","stim","","<div class = centerbox><div class = stroop-stim style = ""color:green"">GREEN</div></div>","66,71,82","1500","test","true","71","500","congruent","green","green","","",""
"-1","-1","poldrack-single-stim","67","125341","0.0-67.0","177e8ac6-eb67-4768-87fc-6c91c74cae7f","","500","500","fixation","","<div class = centerbox><div class = fixation>+</div></div>","none","500","test","","","","","","","","",""
"500","71","poldrack-categorize","68","127854","0.0-68.0","177e8ac6-eb67-4768-87fc-6c91c74cae7f","","1500","250","stim","","<div class = centerbox><div class = stroop-stim style = ""color:green"">GREEN</div></div>","66,71,82","1500","test","true","71","500","congruent","green","green","","",""
"-1","-1","poldrack-single-stim","69","128615","0.0-69.0","177e8ac6-eb67-4768-87fc-6c91c74cae7f","","500","500","fixation","","<div class = centerbox><div class = fixation>+</div></div>","none","500","test","","","","","","","","",""
"508","66","poldrack-categorize","70","131128","0.0-70.0","177e8ac6-eb67-4768-87fc-6c91c74cae7f","","1500","250","stim","","<div class = centerbox><div class = stroop-stim style = ""color:blue"">BLUE</div></div>","66,71,82","1500","test","true","66","500","congruent","blue","blue","","",""
"-1","-1","poldrack-single-stim","71","131888","0.0-71.0","177e8ac6-eb67-4768-87fc-6c91c74cae7f","","500","500","fixation","","<div class = centerbox><div class = fixation>+</div></div>","none","500","test","","","","","","","","",""
"375","82","poldrack-categorize","72","134402","0.0-72.0","177e8ac6-eb67-4768-87fc-6c91c74cae7f","","1500","250","stim","","<div class = centerbox><div class = stroop-stim style = ""color:red"">RED</div></div>","66,71,82","1500","test","true","82","500","congruent","red","red","","",""
"-1","-1","poldrack-single-stim","73","135162","0.0-73.0","177e8ac6-eb67-4768-87fc-6c91c74cae7f","","500","500","fixation","","<div class = centerbox><div class = fixation>+</div></div>","none","500","test","","","","","","","","",""
"469","82","poldrack-categorize","74","137675","0.0-74.0","177e8ac6-eb67-4768-87fc-6c91c74cae7f","","1500","250","stim","","<div class = centerbox><div class = stroop-stim style = ""color:red"">RED</div></div>","66,71,82","1500","test","true","82","500","congruent","red","red","","",""
"-1","-1","poldrack-single-stim","75","138430","0.0-75.0","177e8ac6-eb67-4768-87fc-6c91c74cae7f","","500","500","fixation","","<div class = centerbox><div class = fixation>+</div></div>","none","500","test","","","","","","","","",""
"409","82","poldrack-categorize","76","140938","0.0-76.0","177e8ac6-eb67-4768-87fc-6c91c74cae7f","","1500","250","stim","","<div class = centerbox><div class = stroop-stim style = ""color:red"">RED</div></div>","66,71,82","1500","test","true","82","500","congruent","red","red","","",""
"-1","-1","poldrack-single-stim","77","141698","0.0-77.0","177e8ac6-eb67-4768-87fc-6c91c74cae7f","","500","500","fixation","","<div class = centerbox><div class = fixation>+</div></div>","none","500","test","","","","","","","","",""
"413","82","poldrack-categorize","78","144211","0.0-78.0","177e8ac6-eb67-4768-87fc-6c91c74cae7f","","1500","250","stim","","<div class = centerbox><div class = stroop-stim style = ""color:red"">BLUE</div></div>","66,71,82","1500","test","true","82","500","incongruent","red","blue","","",""
"-1","-1","poldrack-single-stim","79","144972","0.0-79.0","177e8ac6-eb67-4768-87fc-6c91c74cae7f","","500","500","fixation","","<div class = centerbox><div class = fixation>+</div></div>","none","500","test","","","","","","","","",""
"795","71","poldrack-categorize","80","147485","0.0-80.0","177e8ac6-eb67-4768-87fc-6c91c74cae7f","","1500","250","stim","","<div class = centerbox><div class = stroop-stim style = ""color:green"">BLUE</div></div>","66,71,82","1500","test","true","71","500","incongruent","green","blue","","",""
"-1","-1","poldrack-single-stim","81","148246","0.0-81.0","177e8ac6-eb67-4768-87fc-6c91c74cae7f","","500","500","fixation","","<div class = centerbox><div class = fixation>+</div></div>","none","500","test","","","","","","","","",""
"690","66","poldrack-categorize","82","150759","0.0-82.0","177e8ac6-eb67-4768-87fc-6c91c74cae7f","","1500","250","stim","","<div class = centerbox><div class = stroop-stim style = ""color:blue"">BLUE</div></div>","66,71,82","1500","test","true","66","500","congruent","blue","blue","","",""
"-1","-1","poldrack-single-stim","83","151519","0.0-83.0","177e8ac6-eb67-4768-87fc-6c91c74cae7f","","500","500","fixation","","<div class = centerbox><div class = fixation>+</div></div>","none","500","test","","","","","","","","",""
"511","66","poldrack-categorize","84","154033","0.0-84.0","177e8ac6-eb67-4768-87fc-6c91c74cae7f","","1500","250","stim","","<div class = centerbox><div class = stroop-stim style = ""color:blue"">BLUE</div></div>","66,71,82","1500","test","true","66","500","congruent","blue","blue","","",""
"-1","-1","poldrack-single-stim","85","154794","0.0-85.0","177e8ac6-eb67-4768-87fc-6c91c74cae7f","","500","500","fixation","","<div class = centerbox><div class = fixation>+</div></div>","none","500","test","","","","","","","","",""
"437","66","poldrack-categorize","86","157307","0.0-86.0","177e8ac6-eb67-4768-87fc-6c91c74cae7f","","1500","250","stim","","<div class = centerbox><div class = stroop-stim style = ""color:blue"">BLUE</div></div>","66,71,82","1500","test","true","66","500","congruent","blue","blue","","",""
"-1","-1","poldrack-single-stim","87","158062","0.0-87.0","177e8ac6-eb67-4768-87fc-6c91c74cae7f","","500","500","fixation","","<div class = centerbox><div class = fixation>+</div></div>","none","500","test","","","","","","","","",""
"632","82","poldrack-categorize","88","160575","0.0-88.0","177e8ac6-eb67-4768-87fc-6c91c74cae7f","","1500","250","stim","","<div class = centerbox><div class = stroop-stim style = ""color:red"">RED</div></div>","66,71,82","1500","test","true","82","500","congruent","red","red","","",""
"-1","-1","poldrack-single-stim","89","161335","0.0-89.0","177e8ac6-eb67-4768-87fc-6c91c74cae7f","","500","500","fixation","","<div class = centerbox><div class = fixation>+</div></div>","none","500","test","","","","","","","","",""
"654","66","poldrack-categorize","90","163849","0.0-90.0","177e8ac6-eb67-4768-87fc-6c91c74cae7f","","1500","250","stim","","<div class = centerbox><div class = stroop-stim style = ""color:blue"">BLUE</div></div>","66,71,82","1500","test","true","66","500","congruent","blue","blue","","",""
"-1","-1","poldrack-single-stim","91","164609","0.0-91.0","177e8ac6-eb67-4768-87fc-6c91c74cae7f","","500","500","fixation","","<div class = centerbox><div class = fixation>+</div></div>","none","500","test","","","","","","","","",""
"636","82","poldrack-categorize","92","167122","0.0-92.0","177e8ac6-eb67-4768-87fc-6c91c74cae7f","","1500","250","stim","","<div class = centerbox><div class = stroop-stim style = ""color:green"">RED</div></div>","66,71,82","1500","test","false","71","500","incongruent","green","red","","",""
"-1","-1","poldrack-single-stim","93","167877","0.0-93.0","177e8ac6-eb67-4768-87fc-6c91c74cae7f","","500","500","fixation","","<div class = centerbox><div class = fixation>+</div></div>","none","500","test","","","","","","","","",""
"560","71","poldrack-categorize","94","170390","0.0-94.0","177e8ac6-eb67-4768-87fc-6c91c74cae7f","","1500","250","stim","","<div class = centerbox><div class = stroop-stim style = ""color:green"">RED</div></div>","66,71,82","1500","test","true","71","500","incongruent","green","red","","",""
"-1","-1","poldrack-single-stim","95","171147","0.0-95.0","177e8ac6-eb67-4768-87fc-6c91c74cae7f","","500","500","fixation","","<div class = centerbox><div class = fixation>+</div></div>","none","500","test","","","","","","","","",""
"836","71","poldrack-categorize","96","173658","0.0-96.0","177e8ac6-eb67-4768-87fc-6c91c74cae7f","","1500","250","stim","","<div class = centerbox><div class = stroop-stim style = ""color:green"">BLUE</div></div>","66,71,82","1500","test","true","71","500","incongruent","green","blue","","",""
"-1","-1","poldrack-single-stim","97","174419","0.0-97.0","177e8ac6-eb67-4768-87fc-6c91c74cae7f","","500","500","fixation","","<div class = centerbox><div class = fixation>+</div></div>","none","500","test","","","","","","","","",""
"491","82","poldrack-categorize","98","176932","0.0-98.0","177e8ac6-eb67-4768-87fc-6c91c74cae7f","","1500","250","stim","","<div class = centerbox><div class = stroop-stim style = ""color:red"">RED</div></div>","66,71,82","1500","test","true","82","500","congruent","red","red","","",""
"-1","-1","poldrack-single-stim","99","177693","0.0-99.0","177e8ac6-eb67-4768-87fc-6c91c74cae7f","","500","500","fixation","","<div class = centerbox><div class = fixation>+</div></div>","none","500","test","","","","","","","","",""
"640","66","poldrack-categorize","100","180206","0.0-100.0","177e8ac6-eb67-4768-87fc-6c91c74cae7f","","1500","250","stim","","<div class = centerbox><div class = stroop-stim style = ""color:blue"">RED</div></div>","66,71,82","1500","test","true","66","500","incongruent","blue","red","","",""
"-1","-1","poldrack-single-stim","101","180966","0.0-101.0","177e8ac6-eb67-4768-87fc-6c91c74cae7f","","500","500","fixation","","<div class = centerbox><div class = fixation>+</div></div>","none","500","test","","","","","","","","",""
"446","66","poldrack-categorize","102","183478","0.0-102.0","177e8ac6-eb67-4768-87fc-6c91c74cae7f","","1500","250","stim","","<div class = centerbox><div class = stroop-stim style = ""color:blue"">RED</div></div>","66,71,82","1500","test","true","66","500","incongruent","blue","red","","",""
"-1","-1","poldrack-single-stim","103","184235","0.0-103.0","177e8ac6-eb67-4768-87fc-6c91c74cae7f","","500","500","fixation","","<div class = centerbox><div class = fixation>+</div></div>","none","500","test","","","","","","","","",""
"569","82","poldrack-categorize","104","186748","0.0-104.0","177e8ac6-eb67-4768-87fc-6c91c74cae7f","","1500","250","stim","","<div class = centerbox><div class = stroop-stim style = ""color:red"">RED</div></div>","66,71,82","1500","test","true","82","500","congruent","red","red","","",""
"-1","-1","poldrack-single-stim","105","187508","0.0-105.0","177e8ac6-eb67-4768-87fc-6c91c74cae7f","","500","500","fixation","","<div class = centerbox><div class = fixation>+</div></div>","none","500","test","","","","","","","","",""
"495","71","poldrack-categorize","106","190021","0.0-106.0","177e8ac6-eb67-4768-87fc-6c91c74cae7f","","1500","250","stim","","<div class = centerbox><div class = stroop-stim style = ""color:green"">RED</div></div>","66,71,82","1500","test","true","71","500","incongruent","green","red","","",""
"-1","-1","poldrack-single-stim","107","190781","0.0-107.0","177e8ac6-eb67-4768-87fc-6c91c74cae7f","","500","500","fixation","","<div class = centerbox><div class = fixation>+</div></div>","none","500","test","","","","","","","","",""
"483","71","poldrack-categorize","108","193289","0.0-108.0","177e8ac6-eb67-4768-87fc-6c91c74cae7f","","1500","250","stim","","<div class = centerbox><div class = stroop-stim style = ""color:green"">GREEN</div></div>","66,71,82","1500","test","true","71","500","congruent","green","green","","",""
"-1","-1","poldrack-single-stim","109","194050","0.0-109.0","177e8ac6-eb67-4768-87fc-6c91c74cae7f","","500","500","fixation","","<div class = centerbox><div class = fixation>+</div></div>","none","500","test","","","","","","","","",""
"433","82","poldrack-categorize","110","196563","0.0-110.0","177e8ac6-eb67-4768-87fc-6c91c74cae7f","","1500","250","stim","","<div class = centerbox><div class = stroop-stim style = ""color:red"">BLUE</div></div>","66,71,82","1500","test","true","82","500","incongruent","red","blue","","",""
"-1","-1","poldrack-single-stim","111","197323","0.0-111.0","177e8ac6-eb67-4768-87fc-6c91c74cae7f","","500","500","fixation","","<div class = centerbox><div class = fixation>+</div></div>","none","500","test","","","","","","","","",""
"520","66","poldrack-categorize","112","199837","0.0-112.0","177e8ac6-eb67-4768-87fc-6c91c74cae7f","","1500","250","stim","","<div class = centerbox><div class = stroop-stim style = ""color:blue"">GREEN</div></div>","66,71,82","1500","test","true","66","500","incongruent","blue","green","","",""
"-1","-1","poldrack-single-stim","113","200594","0.0-113.0","177e8ac6-eb67-4768-87fc-6c91c74cae7f","","500","500","fixation","","<div class = centerbox><div class = fixation>+</div></div>","none","500","test","","","","","","","","",""
"443","66","poldrack-categorize","114","203105","0.0-114.0","177e8ac6-eb67-4768-87fc-6c91c74cae7f","","1500","250","stim","","<div class = centerbox><div class = stroop-stim style = ""color:blue"">GREEN</div></div>","66,71,82","1500","test","true","66","500","incongruent","blue","green","","",""
"-1","-1","poldrack-single-stim","115","203866","0.0-115.0","177e8ac6-eb67-4768-87fc-6c91c74cae7f","","500","500","fixation","","<div class = centerbox><div class = fixation>+</div></div>","none","500","test","","","","","","","","",""
"626","71","poldrack-categorize","116","206373","0.0-116.0","177e8ac6-eb67-4768-87fc-6c91c74cae7f","","1500","250","stim","","<div class = centerbox><div class = stroop-stim style = ""color:red"">GREEN</div></div>","66,71,82","1500","test","false","82","500","incongruent","red","green","","",""
"-1","-1","poldrack-single-stim","117","207134","0.0-117.0","177e8ac6-eb67-4768-87fc-6c91c74cae7f","","500","500","fixation","","<div class = centerbox><div class = fixation>+</div></div>","none","500","test","","","","","","","","",""
"460","71","poldrack-categorize","118","209647","0.0-118.0","177e8ac6-eb67-4768-87fc-6c91c74cae7f","","1500","250","stim","","<div class = centerbox><div class = stroop-stim style = ""color:green"">GREEN</div></div>","66,71,82","1500","test","true","71","500","congruent","green","green","","",""
"-1","-1","poldrack-single-stim","119","210404","0.0-119.0","177e8ac6-eb67-4768-87fc-6c91c74cae7f","","500","500","fixation","","<div class = centerbox><div class = fixation>+</div></div>","none","500","test","","","","","","","","",""
"457","82","poldrack-categorize","120","212915","0.0-120.0","177e8ac6-eb67-4768-87fc-6c91c74cae7f","","1500","250","stim","","<div class = centerbox><div class = stroop-stim style = ""color:red"">RED</div></div>","66,71,82","1500","test","true","82","500","congruent","red","red","","",""
"-1","-1","poldrack-single-stim","121","213676","0.0-121.0","177e8ac6-eb67-4768-87fc-6c91c74cae7f","","500","500","fixation","","<div class = centerbox><div class = fixation>+</div></div>","none","500","test","","","","","","","","",""
"647","71","poldrack-categorize","122","216183","0.0-122.0","177e8ac6-eb67-4768-87fc-6c91c74cae7f","","1500","250","stim","","<div class = centerbox><div class = stroop-stim style = ""color:green"">GREEN</div></div>","66,71,82","1500","test","true","71","500","congruent","green","green","","",""
"-1","-1","poldrack-single-stim","123","216944","0.0-123.0","177e8ac6-eb67-4768-87fc-6c91c74cae7f","","500","500","fixation","","<div class = centerbox><div class = fixation>+</div></div>","none","500","test","","","","","","","","",""
"466","71","poldrack-categorize","124","219457","0.0-124.0","177e8ac6-eb67-4768-87fc-6c91c74cae7f","","1500","250","stim","","<div class = centerbox><div class = stroop-stim style = ""color:green"">GREEN</div></div>","66,71,82","1500","test","true","71","500","congruent","green","green","","",""
"-1","-1","poldrack-single-stim","125","220215","0.0-125.0","177e8ac6-eb67-4768-87fc-6c91c74cae7f","","500","500","fixation","","<div class = centerbox><div class = fixation>+</div></div>","none","500","test","","","","","","","","",""
"407","71","poldrack-categorize","126","222725","0.0-126.0","177e8ac6-eb67-4768-87fc-6c91c74cae7f","","1500","250","stim","","<div class = centerbox><div class = stroop-stim style = ""color:green"">GREEN</div></div>","66,71,82","1500","test","true","71","500","congruent","green","green","","",""
"-1","-1","poldrack-single-stim","127","223485","0.0-127.0","177e8ac6-eb67-4768-87fc-6c91c74cae7f","","500","500","fixation","","<div class = centerbox><div class = fixation>+</div></div>","none","500","test","","","","","","","","",""
"492","71","poldrack-categorize","128","225993","0.0-128.0","177e8ac6-eb67-4768-87fc-6c91c74cae7f","","1500","250","stim","","<div class = centerbox><div class = stroop-stim style = ""color:green"">GREEN</div></div>","66,71,82","1500","test","true","71","500","congruent","green","green","","",""
"-1","-1","poldrack-single-stim","129","226753","0.0-129.0","177e8ac6-eb67-4768-87fc-6c91c74cae7f","","500","500","fixation","","<div class = centerbox><div class = fixation>+</div></div>","none","500","test","","","","","","","","",""
"680","66","poldrack-categorize","130","229267","0.0-130.0","177e8ac6-eb67-4768-87fc-6c91c74cae7f","","1500","250","stim","","<div class = centerbox><div class = stroop-stim style = ""color:blue"">GREEN</div></div>","66,71,82","1500","test","true","66","500","incongruent","blue","green","","",""
"-1","-1","poldrack-single-stim","131","230026","0.0-131.0","177e8ac6-eb67-4768-87fc-6c91c74cae7f","","500","500","fixation","","<div class = centerbox><div class = fixation>+</div></div>","none","500","test","","","","","","","","",""
"543","82","poldrack-categorize","132","232540","0.0-132.0","177e8ac6-eb67-4768-87fc-6c91c74cae7f","","1500","250","stim","","<div class = centerbox><div class = stroop-stim style = ""color:red"">BLUE</div></div>","66,71,82","1500","test","true","82","500","incongruent","red","blue","","",""
"-1","-1","poldrack-single-stim","133","233301","0.0-133.0","177e8ac6-eb67-4768-87fc-6c91c74cae7f","","500","500","fixation","","<div class = centerbox><div class = fixation>+</div></div>","none","500","test","","","","","","","","",""
"420","82","poldrack-categorize","134","235813","0.0-134.0","177e8ac6-eb67-4768-87fc-6c91c74cae7f","","1500","250","stim","","<div class = centerbox><div class = stroop-stim style = ""color:red"">BLUE</div></div>","66,71,82","1500","test","true","82","500","incongruent","red","blue","","",""
"-1","-1","poldrack-single-stim","135","236569","0.0-135.0","177e8ac6-eb67-4768-87fc-6c91c74cae7f","","500","500","fixation","","<div class = centerbox><div class = fixation>+</div></div>","none","500","test","","","","","","","","",""
"560","66","poldrack-categorize","136","239082","0.0-136.0","177e8ac6-eb67-4768-87fc-6c91c74cae7f","","1500","250","stim","","<div class = centerbox><div class = stroop-stim style = ""color:blue"">BLUE</div></div>","66,71,82","1500","test","true","66","500","congruent","blue","blue","","",""
"-1","-1","poldrack-single-stim","137","239843","0.0-137.0","177e8ac6-eb67-4768-87fc-6c91c74cae7f","","500","500","fixation","","<div class = centerbox><div class = fixation>+</div></div>","none","500","test","","","","","","","","",""
"407","82","poldrack-categorize","138","242356","0.0-138.0","177e8ac6-eb67-4768-87fc-6c91c74cae7f","","1500","250","stim","","<div class = centerbox><div class = stroop-stim style = ""color:red"">RED</div></div>","66,71,82","1500","test","true","82","500","congruent","red","red","","",""
"-1","-1","poldrack-single-stim","139","243111","0.0-139.0","177e8ac6-eb67-4768-87fc-6c91c74cae7f","","500","500","fixation","","<div class = centerbox><div class = fixation>+</div></div>","none","500","test","","","","","","","","",""
"529","66","poldrack-categorize","140","245624","0.0-140.0","177e8ac6-eb67-4768-87fc-6c91c74cae7f","","1500","250","stim","","<div class = centerbox><div class = stroop-stim style = ""color:blue"">BLUE</div></div>","66,71,82","1500","test","true","66","500","congruent","blue","blue","","",""
"-1","-1","poldrack-single-stim","141","246385","0.0-141.0","177e8ac6-eb67-4768-87fc-6c91c74cae7f","","500","500","fixation","","<div class = centerbox><div class = fixation>+</div></div>","none","500","test","","","","","","","","",""
"527","82","poldrack-categorize","142","248898","0.0-142.0","177e8ac6-eb67-4768-87fc-6c91c74cae7f","","1500","250","stim","","<div class = centerbox><div class = stroop-stim style = ""color:red"">RED</div></div>","66,71,82","1500","test","true","82","500","congruent","red","red","","",""
"-1","-1","poldrack-single-stim","143","249658","0.0-143.0","177e8ac6-eb67-4768-87fc-6c91c74cae7f","","500","500","fixation","","<div class = centerbox><div class = fixation>+</div></div>","none","500","test","","","","","","","","",""
"767","66","poldrack-categorize","144","252172","0.0-144.0","177e8ac6-eb67-4768-87fc-6c91c74cae7f","","1500","250","stim","","<div class = centerbox><div class = stroop-stim style = ""color:blue"">RED</div></div>","66,71,82","1500","test","true","66","500","incongruent","blue","red","","",""
"-1","-1","poldrack-single-stim","145","252932","0.0-145.0","177e8ac6-eb67-4768-87fc-6c91c74cae7f","","500","500","fixation","","<div class = centerbox><div class = fixation>+</div></div>","none","500","test","","","","","","","","",""
"435","71","poldrack-categorize","146","255446","0.0-146.0","177e8ac6-eb67-4768-87fc-6c91c74cae7f","","1500","250","stim","","<div class = centerbox><div class = stroop-stim style = ""color:green"">RED</div></div>","66,71,82","1500","test","true","71","500","incongruent","green","red","","",""
"-1","-1","poldrack-single-stim","147","256206","0.0-147.0","177e8ac6-eb67-4768-87fc-6c91c74cae7f","","500","500","fixation","","<div class = centerbox><div class = fixation>+</div></div>","none","500","test","","","","","","","","",""
"481","71","poldrack-categorize","148","258719","0.0-148.0","177e8ac6-eb67-4768-87fc-6c91c74cae7f","","1500","250","stim","","<div class = centerbox><div class = stroop-stim style = ""color:green"">GREEN</div></div>","66,71,82","1500","test","true","71","500","congruent","green","green","","",""
"-1","-1","poldrack-single-stim","149","259480","0.0-149.0","177e8ac6-eb67-4768-87fc-6c91c74cae7f","","500","500","fixation","","<div class = centerbox><div class = fixation>+</div></div>","none","500","test","","","","","","","","",""
"583","71","poldrack-categorize","150","261993","0.0-150.0","177e8ac6-eb67-4768-87fc-6c91c74cae7f","","1500","250","stim","","<div class = centerbox><div class = stroop-stim style = ""color:green"">RED</div></div>","66,71,82","1500","test","true","71","500","incongruent","green","red","","",""
"-1","-1","poldrack-single-stim","151","262754","0.0-151.0","177e8ac6-eb67-4768-87fc-6c91c74cae7f","","500","500","fixation","","<div class = centerbox><div class = fixation>+</div></div>","none","500","test","","","","","","","","",""
"590","66","poldrack-categorize","152","265267","0.0-152.0","177e8ac6-eb67-4768-87fc-6c91c74cae7f","","1500","250","stim","","<div class = centerbox><div class = stroop-stim style = ""color:blue"">GREEN</div></div>","66,71,82","1500","test","true","66","500","incongruent","blue","green","","",""
"-1","-1","poldrack-single-stim","153","266028","0.0-153.0","177e8ac6-eb67-4768-87fc-6c91c74cae7f","","500","500","fixation","","<div class = centerbox><div class = fixation>+</div></div>","none","500","test","","","","","","","","",""
"539","66","poldrack-categorize","154","268541","0.0-154.0","177e8ac6-eb67-4768-87fc-6c91c74cae7f","","1500","250","stim","","<div class = centerbox><div class = stroop-stim style = ""color:blue"">BLUE</div></div>","66,71,82","1500","test","true","66","500","congruent","blue","blue","","",""
"-1","-1","poldrack-single-stim","155","269301","0.0-155.0","177e8ac6-eb67-4768-87fc-6c91c74cae7f","","500","500","fixation","","<div class = centerbox><div class = fixation>+</div></div>","none","500","test","","","","","","","","",""
"585","82","poldrack-categorize","156","271815","0.0-156.0","177e8ac6-eb67-4768-87fc-6c91c74cae7f","","1500","250","stim","","<div class = centerbox><div class = stroop-stim style = ""color:red"">RED</div></div>","66,71,82","1500","test","true","82","500","congruent","red","red","","",""
"-1","-1","poldrack-single-stim","157","272575","0.0-157.0","177e8ac6-eb67-4768-87fc-6c91c74cae7f","","500","500","fixation","","<div class = centerbox><div class = fixation>+</div></div>","none","500","test","","","","","","","","",""
"487","71","poldrack-categorize","158","275087","0.0-158.0","177e8ac6-eb67-4768-87fc-6c91c74cae7f","","1500","250","stim","","<div class = centerbox><div class = stroop-stim style = ""color:green"">BLUE</div></div>","66,71,82","1500","test","true","71","500","incongruent","green","blue","","",""
"-1","-1","poldrack-single-stim","159","275843","0.0-159.0","177e8ac6-eb67-4768-87fc-6c91c74cae7f","","500","500","fixation","","<div class = centerbox><div class = fixation>+</div></div>","none","500","test","","","","","","","","",""
"435","71","poldrack-categorize","160","278356","0.0-160.0","177e8ac6-eb67-4768-87fc-6c91c74cae7f","","1500","250","stim","","<div class = centerbox><div class = stroop-stim style = ""color:green"">GREEN</div></div>","66,71,82","1500","test","true","71","500","congruent","green","green","","",""
"-1","-1","poldrack-single-stim","161","279111","0.0-161.0","177e8ac6-eb67-4768-87fc-6c91c74cae7f","","500","500","fixation","","<div class = centerbox><div class = fixation>+</div></div>","none","500","test","","","","","","","","",""
"374","71","poldrack-categorize","162","281625","0.0-162.0","177e8ac6-eb67-4768-87fc-6c91c74cae7f","","1500","250","stim","","<div class = centerbox><div class = stroop-stim style = ""color:green"">RED</div></div>","66,71,82","1500","test","true","71","500","incongruent","green","red","","",""
"-1","-1","poldrack-single-stim","163","282385","0.0-163.0","177e8ac6-eb67-4768-87fc-6c91c74cae7f","","500","500","fixation","","<div class = centerbox><div class = fixation>+</div></div>","none","500","test","","","","","","","","",""
"444","71","poldrack-categorize","164","284898","0.0-164.0","177e8ac6-eb67-4768-87fc-6c91c74cae7f","","1500","250","stim","","<div class = centerbox><div class = stroop-stim style = ""color:green"">BLUE</div></div>","66,71,82","1500","test","true","71","500","incongruent","green","blue","","",""
"-1","-1","poldrack-single-stim","165","285659","0.0-165.0","177e8ac6-eb67-4768-87fc-6c91c74cae7f","","500","500","fixation","","<div class = centerbox><div class = fixation>+</div></div>","none","500","test","","","","","","","","",""
"467","71","poldrack-categorize","166","288172","0.0-166.0","177e8ac6-eb67-4768-87fc-6c91c74cae7f","","1500","250","stim","","<div class = centerbox><div class = stroop-stim style = ""color:green"">GREEN</div></div>","66,71,82","1500","test","true","71","500","congruent","green","green","","",""
"-1","-1","poldrack-single-stim","167","288932","0.0-167.0","177e8ac6-eb67-4768-87fc-6c91c74cae7f","","500","500","fixation","","<div class = centerbox><div class = fixation>+</div></div>","none","500","test","","","","","","","","",""
"401","82","poldrack-categorize","168","291446","0.0-168.0","177e8ac6-eb67-4768-87fc-6c91c74cae7f","","1500","250","stim","","<div class = centerbox><div class = stroop-stim style = ""color:red"">RED</div></div>","66,71,82","1500","test","true","82","500","congruent","red","red","","",""
"-1","-1","poldrack-single-stim","169","292206","0.0-169.0","177e8ac6-eb67-4768-87fc-6c91c74cae7f","","500","500","fixation","","<div class = centerbox><div class = fixation>+</div></div>","none","500","test","","","","","","","","",""
"480","71","poldrack-categorize","170","294720","0.0-170.0","177e8ac6-eb67-4768-87fc-6c91c74cae7f","","1500","250","stim","","<div class = centerbox><div class = stroop-stim style = ""color:green"">BLUE</div></div>","66,71,82","1500","test","true","71","500","incongruent","green","blue","","",""
"-1","-1","poldrack-single-stim","171","295480","0.0-171.0","177e8ac6-eb67-4768-87fc-6c91c74cae7f","","500","500","fixation","","<div class = centerbox><div class = fixation>+</div></div>","none","500","test","","","","","","","","",""
"476","82","poldrack-categorize","172","297993","0.0-172.0","177e8ac6-eb67-4768-87fc-6c91c74cae7f","","1500","250","stim","","<div class = centerbox><div class = stroop-stim style = ""color:red"">GREEN</div></div>","66,71,82","1500","test","true","82","500","incongruent","red","green","","",""
"-1","-1","poldrack-single-stim","173","298749","0.0-173.0","177e8ac6-eb67-4768-87fc-6c91c74cae7f","","500","500","fixation","","<div class = centerbox><div class = fixation>+</div></div>","none","500","test","","","","","","","","",""
"486","82","poldrack-categorize","174","301261","0.0-174.0","177e8ac6-eb67-4768-87fc-6c91c74cae7f","","1500","250","stim","","<div class = centerbox><div class = stroop-stim style = ""color:red"">GREEN</div></div>","66,71,82","1500","test","true","82","500","incongruent","red","green","","",""
"-1","-1","poldrack-single-stim","175","302022","0.0-175.0","177e8ac6-eb67-4768-87fc-6c91c74cae7f","","500","500","fixation","","<div class = centerbox><div class = fixation>+</div></div>","none","500","test","","","","","","","","",""
"566","71","poldrack-categorize","176","304535","0.0-176.0","177e8ac6-eb67-4768-87fc-6c91c74cae7f","","1500","250","stim","","<div class = centerbox><div class = stroop-stim style = ""color:green"">GREEN</div></div>","66,71,82","1500","test","true","71","500","congruent","green","green","","",""
"-1","-1","poldrack-single-stim","177","305290","0.0-177.0","177e8ac6-eb67-4768-87fc-6c91c74cae7f","","500","500","fixation","","<div class = centerbox><div class = fixation>+</div></div>","none","500","test","","","","","","","","",""
"538","66","poldrack-categorize","178","307803","0.0-178.0","177e8ac6-eb67-4768-87fc-6c91c74cae7f","","1500","250","stim","","<div class = centerbox><div class = stroop-stim style = ""color:blue"">RED</div></div>","66,71,82","1500","test","true","66","500","incongruent","blue","red","","",""
"-1","-1","poldrack-single-stim","179","308564","0.0-179.0","177e8ac6-eb67-4768-87fc-6c91c74cae7f","","500","500","fixation","","<div class = centerbox><div class = fixation>+</div></div>","none","500","test","","","","","","","","",""
"424","66","poldrack-categorize","180","311076","0.0-180.0","177e8ac6-eb67-4768-87fc-6c91c74cae7f","","1500","250","stim","","<div class = centerbox><div class = stroop-stim style = ""color:blue"">RED</div></div>","66,71,82","1500","test","true","66","500","incongruent","blue","red","","",""
"-1","-1","poldrack-single-stim","181","311832","0.0-181.0","177e8ac6-eb67-4768-87fc-6c91c74cae7f","","500","500","fixation","","<div class = centerbox><div class = fixation>+</div></div>","none","500","test","","","","","","","","",""
"506","71","poldrack-categorize","182","314345","0.0-182.0","177e8ac6-eb67-4768-87fc-6c91c74cae7f","","1500","250","stim","","<div class = centerbox><div class = stroop-stim style = ""color:green"">GREEN</div></div>","66,71,82","1500","test","true","71","500","congruent","green","green","","",""
"-1","-1","poldrack-single-stim","183","315106","0.0-183.0","177e8ac6-eb67-4768-87fc-6c91c74cae7f","","500","500","fixation","","<div class = centerbox><div class = fixation>+</div></div>","none","500","test","","","","","","","","",""
"642","66","poldrack-categorize","184","317619","0.0-184.0","177e8ac6-eb67-4768-87fc-6c91c74cae7f","","1500","250","stim","","<div class = centerbox><div class = stroop-stim style = ""color:blue"">GREEN</div></div>","66,71,82","1500","test","true","66","500","incongruent","blue","green","","",""
"-1","-1","poldrack-single-stim","185","318379","0.0-185.0","177e8ac6-eb67-4768-87fc-6c91c74cae7f","","500","500","fixation","","<div class = centerbox><div class = fixation>+</div></div>","none","500","test","","","","","","","","",""
"593","71","poldrack-categorize","186","320891","0.0-186.0","177e8ac6-eb67-4768-87fc-6c91c74cae7f","","1500","250","stim","","<div class = centerbox><div class = stroop-stim style = ""color:red"">GREEN</div></div>","66,71,82","1500","test","false","82","500","incongruent","red","green","","",""
"-1","-1","poldrack-single-stim","187","321647","0.0-187.0","177e8ac6-eb67-4768-87fc-6c91c74cae7f","","500","500","fixation","","<div class = centerbox><div class = fixation>+</div></div>","none","500","test","","","","","","","","",""
"780","71","poldrack-categorize","188","324161","0.0-188.0","177e8ac6-eb67-4768-87fc-6c91c74cae7f","","1500","250","stim","","<div class = centerbox><div class = stroop-stim style = ""color:green"">GREEN</div></div>","66,71,82","1500","test","true","71","500","congruent","green","green","","",""
"-1","-1","poldrack-single-stim","189","324917","0.0-189.0","177e8ac6-eb67-4768-87fc-6c91c74cae7f","","500","500","fixation","","<div class = centerbox><div class = fixation>+</div></div>","none","500","test","","","","","","","","",""
"500","82","poldrack-categorize","190","327429","0.0-190.0","177e8ac6-eb67-4768-87fc-6c91c74cae7f","","1500","250","stim","","<div class = centerbox><div class = stroop-stim style = ""color:red"">RED</div></div>","66,71,82","1500","test","true","82","500","congruent","red","red","","",""
"-1","-1","poldrack-single-stim","191","328189","0.0-191.0","177e8ac6-eb67-4768-87fc-6c91c74cae7f","","500","500","fixation","","<div class = centerbox><div class = fixation>+</div></div>","none","500","test","","","","","","","","",""
"478","82","poldrack-categorize","192","330702","0.0-192.0","177e8ac6-eb67-4768-87fc-6c91c74cae7f","","1500","250","stim","","<div class = centerbox><div class = stroop-stim style = ""color:red"">BLUE</div></div>","66,71,82","1500","test","true","82","500","incongruent","red","blue","","",""
"-1","-1","poldrack-single-stim","193","331463","0.0-193.0","177e8ac6-eb67-4768-87fc-6c91c74cae7f","","500","500","fixation","","<div class = centerbox><div class = fixation>+</div></div>","none","500","test","","","","","","","","",""
"643","66","poldrack-categorize","194","333976","0.0-194.0","177e8ac6-eb67-4768-87fc-6c91c74cae7f","","1500","250","stim","","<div class = centerbox><div class = stroop-stim style = ""color:blue"">RED</div></div>","66,71,82","1500","test","true","66","500","incongruent","blue","red","","",""
"-1","-1","poldrack-single-stim","195","334737","0.0-195.0","177e8ac6-eb67-4768-87fc-6c91c74cae7f","","500","500","fixation","","<div class = centerbox><div class = fixation>+</div></div>","none","500","test","","","","","","","","",""
"450","66","poldrack-categorize","196","337250","0.0-196.0","177e8ac6-eb67-4768-87fc-6c91c74cae7f","","1500","250","stim","","<div class = centerbox><div class = stroop-stim style = ""color:blue"">BLUE</div></div>","66,71,82","1500","test","true","66","500","congruent","blue","blue","","",""
"-1","-1","poldrack-single-stim","197","338011","0.0-197.0","177e8ac6-eb67-4768-87fc-6c91c74cae7f","","500","500","fixation","","<div class = centerbox><div class = fixation>+</div></div>","none","500","test","","","","","","","","",""
"856","71","poldrack-categorize","198","340520","0.0-198.0","177e8ac6-eb67-4768-87fc-6c91c74cae7f","","1500","250","stim","","<div class = centerbox><div class = stroop-stim style = ""color:red"">GREEN</div></div>","66,71,82","1500","test","false","82","500","incongruent","red","green","","",""
"-1","-1","poldrack-single-stim","199","341279","0.0-199.0","177e8ac6-eb67-4768-87fc-6c91c74cae7f","","500","500","fixation","","<div class = centerbox><div class = fixation>+</div></div>","none","500","test","","","","","","","","",""
"675","66","poldrack-categorize","200","343792","0.0-200.0","177e8ac6-eb67-4768-87fc-6c91c74cae7f","","1500","250","stim","","<div class = centerbox><div class = stroop-stim style = ""color:blue"">BLUE</div></div>","66,71,82","1500","test","true","66","500","congruent","blue","blue","","",""
"-1","-1","poldrack-single-stim","201","344552","0.0-201.0","177e8ac6-eb67-4768-87fc-6c91c74cae7f","","500","500","fixation","","<div class = centerbox><div class = fixation>+</div></div>","none","500","test","","","","","","","","",""
"657","71","poldrack-categorize","202","347066","0.0-202.0","177e8ac6-eb67-4768-87fc-6c91c74cae7f","","1500","250","stim","","<div class = centerbox><div class = stroop-stim style = ""color:green"">GREEN</div></div>","66,71,82","1500","test","true","71","500","congruent","green","green","","",""
"-1","-1","poldrack-single-stim","203","347826","0.0-203.0","177e8ac6-eb67-4768-87fc-6c91c74cae7f","","500","500","fixation","","<div class = centerbox><div class = fixation>+</div></div>","none","500","test","","","","","","","","",""
"472","82","poldrack-categorize","204","350338","0.0-204.0","177e8ac6-eb67-4768-87fc-6c91c74cae7f","","1500","250","stim","","<div class = centerbox><div class = stroop-stim style = ""color:red"">RED</div></div>","66,71,82","1500","test","true","82","500","congruent","red","red","","",""
"-1","-1","poldrack-single-stim","205","351094","0.0-205.0","177e8ac6-eb67-4768-87fc-6c91c74cae7f","","500","500","fixation","","<div class = centerbox><div class = fixation>+</div></div>","none","500","test","","","","","","","","",""
"507","71","poldrack-categorize","206","353607","0.0-206.0","177e8ac6-eb67-4768-87fc-6c91c74cae7f","","1500","250","stim","","<div class = centerbox><div class = stroop-stim style = ""color:green"">BLUE</div></div>","66,71,82","1500","test","true","71","500","incongruent","green","blue","","",""
"-1","-1","poldrack-single-stim","207","354368","0.0-207.0","177e8ac6-eb67-4768-87fc-6c91c74cae7f","","500","500","fixation","","<div class = centerbox><div class = fixation>+</div></div>","none","500","test","","","","","","","","",""
"521","71","poldrack-categorize","208","356881","0.0-208.0","177e8ac6-eb67-4768-87fc-6c91c74cae7f","","1500","250","stim","","<div class = centerbox><div class = stroop-stim style = ""color:green"">RED</div></div>","66,71,82","1500","test","true","71","500","incongruent","green","red","","",""
"-1","-1","poldrack-single-stim","209","357642","0.0-209.0","177e8ac6-eb67-4768-87fc-6c91c74cae7f","","500","500","fixation","","<div class = centerbox><div class = fixation>+</div></div>","none","500","test","","","","","","","","",""
"959","66","poldrack-categorize","210","360155","0.0-210.0","177e8ac6-eb67-4768-87fc-6c91c74cae7f","","1500","250","stim","","<div class = centerbox><div class = stroop-stim style = ""color:blue"">BLUE</div></div>","66,71,82","1500","test","true","66","500","congruent","blue","blue","","",""
"-1","-1","poldrack-single-stim","211","360916","0.0-211.0","177e8ac6-eb67-4768-87fc-6c91c74cae7f","","500","500","fixation","","<div class = centerbox><div class = fixation>+</div></div>","none","500","test","","","","","","","","",""
"445","66","poldrack-categorize","212","363429","0.0-212.0","177e8ac6-eb67-4768-87fc-6c91c74cae7f","","1500","250","stim","","<div class = centerbox><div class = stroop-stim style = ""color:blue"">GREEN</div></div>","66,71,82","1500","test","true","66","500","incongruent","blue","green","","",""
"-1","-1","poldrack-single-stim","213","364189","0.0-213.0","177e8ac6-eb67-4768-87fc-6c91c74cae7f","","500","500","fixation","","<div class = centerbox><div class = fixation>+</div></div>","none","500","test","","","","","","","","",""
"547","82","poldrack-categorize","214","366703","0.0-214.0","177e8ac6-eb67-4768-87fc-6c91c74cae7f","","1500","250","stim","","<div class = centerbox><div class = stroop-stim style = ""color:green"">RED</div></div>","66,71,82","1500","test","false","71","500","incongruent","green","red","","",""
"-1","-1","poldrack-single-stim","215","367463","0.0-215.0","177e8ac6-eb67-4768-87fc-6c91c74cae7f","","500","500","fixation","","<div class = centerbox><div class = fixation>+</div></div>","none","500","test","","","","","","","","",""
"609","66","poldrack-categorize","216","369976","0.0-216.0","177e8ac6-eb67-4768-87fc-6c91c74cae7f","","1500","250","stim","","<div class = centerbox><div class = stroop-stim style = ""color:blue"">BLUE</div></div>","66,71,82","1500","test","true","66","500","congruent","blue","blue","","",""
"-1","-1","poldrack-single-stim","217","370737","0.0-217.0","177e8ac6-eb67-4768-87fc-6c91c74cae7f","","500","500","fixation","","<div class = centerbox><div class = fixation>+</div></div>","none","500","test","","","","","","","","",""
"494","66","poldrack-categorize","218","373250","0.0-218.0","177e8ac6-eb67-4768-87fc-6c91c74cae7f","","1500","250","stim","","<div class = centerbox><div class = stroop-stim style = ""color:blue"">GREEN</div></div>","66,71,82","1500","test","true","66","500","incongruent","blue","green","","",""
"-1","-1","poldrack-single-stim","219","374011","0.0-219.0","177e8ac6-eb67-4768-87fc-6c91c74cae7f","","500","500","fixation","","<div class = centerbox><div class = fixation>+</div></div>","none","500","test","","","","","","","","",""
"525","82","poldrack-categorize","220","376524","0.0-220.0","177e8ac6-eb67-4768-87fc-6c91c74cae7f","","1500","250","stim","","<div class = centerbox><div class = stroop-stim style = ""color:red"">RED</div></div>","66,71,82","1500","test","true","82","500","congruent","red","red","","",""
"-1","-1","poldrack-single-stim","221","377285","0.0-221.0","177e8ac6-eb67-4768-87fc-6c91c74cae7f","","500","500","fixation","","<div class = centerbox><div class = fixation>+</div></div>","none","500","test","","","","","","","","",""
"451","71","poldrack-categorize","222","379798","0.0-222.0","177e8ac6-eb67-4768-87fc-6c91c74cae7f","","1500","250","stim","","<div class = centerbox><div class = stroop-stim style = ""color:green"">GREEN</div></div>","66,71,82","1500","test","true","71","500","congruent","green","green","","",""
"-1","-1","poldrack-single-stim","223","380558","0.0-223.0","177e8ac6-eb67-4768-87fc-6c91c74cae7f","","500","500","fixation","","<div class = centerbox><div class = fixation>+</div></div>","none","500","test","","","","","","","","",""
"545","66","poldrack-categorize","224","383072","0.0-224.0","177e8ac6-eb67-4768-87fc-6c91c74cae7f","","1500","250","stim","","<div class = centerbox><div class = stroop-stim style = ""color:blue"">BLUE</div></div>","66,71,82","1500","test","true","66","500","congruent","blue","blue","","",""
"-1","-1","poldrack-single-stim","225","383830","0.0-225.0","177e8ac6-eb67-4768-87fc-6c91c74cae7f","","500","500","fixation","","<div class = centerbox><div class = fixation>+</div></div>","none","500","test","","","","","","","","",""
"605","82","poldrack-categorize","226","386336","0.0-226.0","177e8ac6-eb67-4768-87fc-6c91c74cae7f","","1500","250","stim","","<div class = centerbox><div class = stroop-stim style = ""color:red"">GREEN</div></div>","66,71,82","1500","test","true","82","500","incongruent","red","green","","",""
"-1","-1","poldrack-single-stim","227","387095","0.0-227.0","177e8ac6-eb67-4768-87fc-6c91c74cae7f","","500","500","fixation","","<div class = centerbox><div class = fixation>+</div></div>","none","500","test","","","","","","","","",""
"440","82","poldrack-categorize","228","389608","0.0-228.0","177e8ac6-eb67-4768-87fc-6c91c74cae7f","","1500","250","stim","","<div class = centerbox><div class = stroop-stim style = ""color:red"">BLUE</div></div>","66,71,82","1500","test","true","82","500","incongruent","red","blue","","",""
"-1","-1","poldrack-single-stim","229","390368","0.0-229.0","177e8ac6-eb67-4768-87fc-6c91c74cae7f","","500","500","fixation","","<div class = centerbox><div class = fixation>+</div></div>","none","500","test","","","","","","","","",""
"622","66","poldrack-categorize","230","392881","0.0-230.0","177e8ac6-eb67-4768-87fc-6c91c74cae7f","","1500","250","stim","","<div class = centerbox><div class = stroop-stim style = ""color:blue"">BLUE</div></div>","66,71,82","1500","test","true","66","500","congruent","blue","blue","","",""
"-1","-1","poldrack-single-stim","231","393642","0.0-231.0","177e8ac6-eb67-4768-87fc-6c91c74cae7f","","500","500","fixation","","<div class = centerbox><div class = fixation>+</div></div>","none","500","test","","","","","","","","",""
"564","82","poldrack-categorize","232","396155","0.0-232.0","177e8ac6-eb67-4768-87fc-6c91c74cae7f","","1500","250","stim","","<div class = centerbox><div class = stroop-stim style = ""color:red"">GREEN</div></div>","66,71,82","1500","test","true","82","500","incongruent","red","green","","",""
"-1","-1","poldrack-single-stim","233","396910","0.0-233.0","177e8ac6-eb67-4768-87fc-6c91c74cae7f","","500","500","fixation","","<div class = centerbox><div class = fixation>+</div></div>","none","500","test","","","","","","","","",""
"848","71","poldrack-categorize","234","399423","0.0-234.0","177e8ac6-eb67-4768-87fc-6c91c74cae7f","","1500","250","stim","","<div class = centerbox><div class = stroop-stim style = ""color:green"">BLUE</div></div>","66,71,82","1500","test","true","71","500","incongruent","green","blue","","",""
"-1","-1","poldrack-single-stim","235","400183","0.0-235.0","177e8ac6-eb67-4768-87fc-6c91c74cae7f","","500","500","fixation","","<div class = centerbox><div class = fixation>+</div></div>","none","500","test","","","","","","","","",""
"767","66","poldrack-categorize","236","402697","0.0-236.0","177e8ac6-eb67-4768-87fc-6c91c74cae7f","","1500","250","stim","","<div class = centerbox><div class = stroop-stim style = ""color:blue"">RED</div></div>","66,71,82","1500","test","true","66","500","incongruent","blue","red","","",""
"-1","-1","poldrack-single-stim","237","403458","0.0-237.0","177e8ac6-eb67-4768-87fc-6c91c74cae7f","","500","500","fixation","","<div class = centerbox><div class = fixation>+</div></div>","none","500","test","","","","","","","","",""
"484","66","poldrack-categorize","238","405971","0.0-238.0","177e8ac6-eb67-4768-87fc-6c91c74cae7f","","1500","250","stim","","<div class = centerbox><div class = stroop-stim style = ""color:blue"">BLUE</div></div>","66,71,82","1500","test","true","66","500","congruent","blue","blue","","",""
"-1","-1","poldrack-single-stim","239","406732","0.0-239.0","177e8ac6-eb67-4768-87fc-6c91c74cae7f","","500","500","fixation","","<div class = centerbox><div class = fixation>+</div></div>","none","500","test","","","","","","","","",""
"481","82","poldrack-categorize","240","409245","0.0-240.0","177e8ac6-eb67-4768-87fc-6c91c74cae7f","","1500","250","stim","","<div class = centerbox><div class = stroop-stim style = ""color:red"">RED</div></div>","66,71,82","1500","test","true","82","500","congruent","red","red","","",""
"-1","-1","poldrack-single-stim","241","410005","0.0-241.0","177e8ac6-eb67-4768-87fc-6c91c74cae7f","","500","500","fixation","","<div class = centerbox><div class = fixation>+</div></div>","none","500","test","","","","","","","","",""
"1032","66","poldrack-categorize","242","412519","0.0-242.0","177e8ac6-eb67-4768-87fc-6c91c74cae7f","","1500","250","stim","","<div class = centerbox><div class = stroop-stim style = ""color:blue"">RED</div></div>","66,71,82","1500","test","true","66","500","incongruent","blue","red","","",""
"-1","-1","poldrack-single-stim","243","413279","0.0-243.0","177e8ac6-eb67-4768-87fc-6c91c74cae7f","","500","500","fixation","","<div class = centerbox><div class = fixation>+</div></div>","none","500","test","","","","","","","","",""
"830","66","poldrack-categorize","244","415792","0.0-244.0","177e8ac6-eb67-4768-87fc-6c91c74cae7f","","1500","250","stim","","<div class = centerbox><div class = stroop-stim style = ""color:blue"">GREEN</div></div>","66,71,82","1500","test","true","66","500","incongruent","blue","green","","",""
"71613","","survey-text","245","487662","0.0-246.0","177e8ac6-eb67-4768-87fc-6c91c74cae7f","","","","post task questions","","","","","","","","","","","","{""Q0"":""I had to press either the R, G or B key depending on the color of the ink."",""Q1"":""It was easy to let my mind wander and get more answers right than to focus on each word.""}","",""
"1602","13","poldrack-text","246","490266","0.0-247.0","177e8ac6-eb67-4768-87fc-6c91c74cae7f","<div class = centerbox><p class = center-block-text>Thanks for completing this task!</p><p class = center-block-text>Press <strong>enter</strong> to continue.</p></div>","1602","0","end","","","","","","","","","","","","","stroop","true"
"572656","13","text","247","1062960","0.0-248.0","177e8ac6-eb67-4768-87fc-6c91c74cae7f","","","","","","","","","","","","","","","","","",""
