"rt","key_press","trial_type","trial_index","time_elapsed","internal_node_id","subject","text","block_duration","timing_post_trial","trial_id","view_history","stimulus","possible_responses","stim_duration","exp_stage","correct","correct_response","feedback_duration","condition","stim_color","stim_word","responses","exp_id","credit_var"
"1317","13","text","0","1319","0.0-0.0","5e0d2800-e146-4490-8d64-bb4e8daeb129","","","","","","","","","","","","","","","","","",""
"18324","13","poldrack-text","1","20650","0.0-1.0-0.0","5e0d2800-e146-4490-8d64-bb4e8daeb129","<div class = centerbox><p class = center-block-text>Welcome to the experiment. This experiment will take about 8 minutes. Press <strong>enter</strong> to begin.</p></div>","18324","0","instruction","","","","","","","","","","","","","",""
"4784","","poldrack-instructions","2","25435","0.0-1.0-1.0","5e0d2800-e146-4490-8d64-bb4e8daeb129","","","","instruction","[{""page_index"":0,""viewing_time"":4783}]","","","","","","","","","","","","",""
"13490","13","poldrack-text","3","39929","0.0-2.0","5e0d2800-e146-4490-8d64-bb4e8daeb129","<div class = centerbox><p class = block-text>We will start with a few practice trials. Remember, press the key corresponding to the <strong>ink</strong> color of the word: ""r"" for words colored red, ""b"" for words colored blue, and ""g"" for words colored green.</p><p class = block-text>Press <strong>enter</strong> to begin practice.</p></div>","13490","1000","practice_intro","","","","","","","","","","","","","",""
"-1","-1","poldrack-single-stim","4","41435","0.0-3.0","5e0d2800-e146-4490-8d64-bb4e8daeb129","","500","500","fixation","","<div class = centerbox><div class = fixation>+</div></div>","none","500","practice","","","","","","","","",""
"855","66","poldrack-categorize","5","43945","0.0-4.0","5e0d2800-e146-4490-8d64-bb4e8daeb129","","1500","250","stim","","<div class = centerbox><div class = stroop-stim style = ""color:blue"">BLUE</div></div>","66,71,82","1500","practice","true","66","500","congruent","blue","blue","","",""
"-1","-1","poldrack-single-stim","6","44706","0.0-5.0","5e0d2800-e146-4490-8d64-bb4e8daeb129","","500","500","fixation","","<div class = centerbox><div class = fixation>+</div></div>","none","500","practice","","","","","","","","",""
"687","82","poldrack-categorize","7","47219","0.0-6.0","5e0d2800-e146-4490-8d64-bb4e8daeb129","","1500","250","stim","","<div class = centerbox><div class = stroop-stim style = ""color:red"">RED</div></div>","66,71,82","1500","practice","true","82","500","congruent","red","red","","",""
"-1","-1","poldrack-single-stim","8","47977","0.0-7.0","5e0d2800-e146-4490-8d64-bb4e8daeb129","","500","500","fixation","","<div class = centerbox><div class = fixation>+</div></div>","none","500","practice","","","","","","","","",""
"976","82","poldrack-categorize","9","50487","0.0-8.0","5e0d2800-e146-4490-8d64-bb4e8daeb129","","1500","250","stim","","<div class = centerbox><div class = stroop-stim style = ""color:red"">BLUE</div></div>","66,71,82","1500","practice","true","82","500","incongruent","red","blue","","",""
"-1","-1","poldrack-single-stim","10","51247","0.0-9.0","5e0d2800-e146-4490-8d64-bb4e8daeb129","","500","500","fixation","","<div class = centerbox><div class = fixation>+</div></div>","none","500","practice","","","","","","","","",""
"887","71","poldrack-categorize","11","53761","0.0-10.0","5e0d2800-e146-4490-8d64-bb4e8daeb129","","1500","250","stim","","<div class = centerbox><div class = stroop-stim style = ""color:green"">RED</div></div>","66,71,82","1500","practice","true","71","500","incongruent","green","red","","",""
"-1","-1","poldrack-single-stim","12","54521","0.0-11.0","5e0d2800-e146-4490-8d64-bb4e8daeb129","","500","500","fixation","","<div class = centerbox><div class = fixation>+</div></div>","none","500","practice","","","","","","","","",""
"637","71","poldrack-categorize","13","57029","0.0-12.0","5e0d2800-e146-4490-8d64-bb4e8daeb129","","1500","250","stim","","<div class = centerbox><div class = stroop-stim style = ""color:green"">GREEN</div></div>","66,71,82","1500","practice","true","71","500","congruent","green","green","","",""
"-1","-1","poldrack-single-stim","14","57789","0.0-13.0","5e0d2800-e146-4490-8d64-bb4e8daeb129","","500","500","fixation","","<div class = centerbox><div class = fixation>+</div></div>","none","500","practice","","","","","","","","",""
"529","82","poldrack-categorize","15","60302","0.0-14.0","5e0d2800-e146-4490-8d64-bb4e8daeb129","","1500","250","stim","","<div class = centerbox><div class = stroop-stim style = ""color:red"">RED</div></div>","66,71,82","1500","practice","true","82","500","congruent","red","red","","",""
"-1","-1","poldrack-single-stim","16","61063","0.0-15.0","5e0d2800-e146-4490-8d64-bb4e8daeb129","","500","500","fixation","","<div class = centerbox><div class = fixation>+</div></div>","none","500","practice","","","","","","","","",""
"838","71","poldrack-categorize","17","63576","0.0-16.0","5e0d2800-e146-4490-8d64-bb4e8daeb129","","1500","250","stim","","<div class = centerbox><div class = stroop-stim style = ""color:green"">BLUE</div></div>","66,71,82","1500","practice","true","71","500","incongruent","green","blue","","",""
"-1","-1","poldrack-single-stim","18","64337","0.0-17.0","5e0d2800-e146-4490-8d64-bb4e8daeb129","","500","500","fixation","","<div class = centerbox><div class = fixation>+</div></div>","none","500","practice","","","","","","","","",""
"581","82","poldrack-categorize","19","66850","0.0-18.0","5e0d2800-e146-4490-8d64-bb4e8daeb129","","1500","250","stim","","<div class = centerbox><div class = stroop-stim style = ""color:red"">RED</div></div>","66,71,82","1500","practice","true","82","500","congruent","red","red","","",""
"-1","-1","poldrack-single-stim","20","67611","0.0-19.0","5e0d2800-e146-4490-8d64-bb4e8daeb129","","500","500","fixation","","<div class = centerbox><div class = fixation>+</div></div>","none","500","practice","","","","","","","","",""
"731","71","poldrack-categorize","21","70124","0.0-20.0","5e0d2800-e146-4490-8d64-bb4e8daeb129","","1500","250","stim","","<div class = centerbox><div class = stroop-stim style = ""color:green"">GREEN</div></div>","66,71,82","1500","practice","true","71","500","congruent","green","green","","",""
"-1","-1","poldrack-single-stim","22","70885","0.0-21.0","5e0d2800-e146-4490-8d64-bb4e8daeb129","","500","500","fixation","","<div class = centerbox><div class = fixation>+</div></div>","none","500","practice","","","","","","","","",""
"801","66","poldrack-categorize","23","73398","0.0-22.0","5e0d2800-e146-4490-8d64-bb4e8daeb129","","1500","250","stim","","<div class = centerbox><div class = stroop-stim style = ""color:blue"">RED</div></div>","66,71,82","1500","practice","true","66","500","incongruent","blue","red","","",""
"-1","-1","poldrack-single-stim","24","74158","0.0-23.0","5e0d2800-e146-4490-8d64-bb4e8daeb129","","500","500","fixation","","<div class = centerbox><div class = fixation>+</div></div>","none","500","practice","","","","","","","","",""
"646","71","poldrack-categorize","25","76672","0.0-24.0","5e0d2800-e146-4490-8d64-bb4e8daeb129","","1500","250","stim","","<div class = centerbox><div class = stroop-stim style = ""color:green"">GREEN</div></div>","66,71,82","1500","practice","true","71","500","congruent","green","green","","",""
"-1","-1","poldrack-single-stim","26","77432","0.0-25.0","5e0d2800-e146-4490-8d64-bb4e8daeb129","","500","500","fixation","","<div class = centerbox><div class = fixation>+</div></div>","none","500","practice","","","","","","","","",""
"645","82","poldrack-categorize","27","79945","0.0-26.0","5e0d2800-e146-4490-8d64-bb4e8daeb129","","1500","250","stim","","<div class = centerbox><div class = stroop-stim style = ""color:red"">BLUE</div></div>","66,71,82","1500","practice","true","82","500","incongruent","red","blue","","",""
"-1","-1","poldrack-single-stim","28","80706","0.0-27.0","5e0d2800-e146-4490-8d64-bb4e8daeb129","","500","500","fixation","","<div class = centerbox><div class = fixation>+</div></div>","none","500","practice","","","","","","","","",""
"731","71","poldrack-categorize","29","83219","0.0-28.0","5e0d2800-e146-4490-8d64-bb4e8daeb129","","1500","250","stim","","<div class = centerbox><div class = stroop-stim style = ""color:green"">RED</div></div>","66,71,82","1500","practice","true","71","500","incongruent","green","red","","",""
"-1","-1","poldrack-single-stim","30","83980","0.0-29.0","5e0d2800-e146-4490-8d64-bb4e8daeb129","","500","500","fixation","","<div class = centerbox><div class = fixation>+</div></div>","none","500","practice","","","","","","","","",""
"810","66","poldrack-categorize","31","86493","0.0-30.0","5e0d2800-e146-4490-8d64-bb4e8daeb129","","1500","250","stim","","<div class = centerbox><div class = stroop-stim style = ""color:blue"">GREEN</div></div>","66,71,82","1500","practice","true","66","500","incongruent","blue","green","","",""
"-1","-1","poldrack-single-stim","32","87254","0.0-31.0","5e0d2800-e146-4490-8d64-bb4e8daeb129","","500","500","fixation","","<div class = centerbox><div class = fixation>+</div></div>","none","500","practice","","","","","","","","",""
"631","71","poldrack-categorize","33","89767","0.0-32.0","5e0d2800-e146-4490-8d64-bb4e8daeb129","","1500","250","stim","","<div class = centerbox><div class = stroop-stim style = ""color:green"">GREEN</div></div>","66,71,82","1500","practice","true","71","500","congruent","green","green","","",""
"-1","-1","poldrack-single-stim","34","90527","0.0-33.0","5e0d2800-e146-4490-8d64-bb4e8daeb129","","500","500","fixation","","<div class = centerbox><div class = fixation>+</div></div>","none","500","practice","","","","","","","","",""
"621","66","poldrack-categorize","35","93040","0.0-34.0","5e0d2800-e146-4490-8d64-bb4e8daeb129","","1500","250","stim","","<div class = centerbox><div class = stroop-stim style = ""color:blue"">BLUE</div></div>","66,71,82","1500","practice","true","66","500","congruent","blue","blue","","",""
"-1","-1","poldrack-single-stim","36","93801","0.0-35.0","5e0d2800-e146-4490-8d64-bb4e8daeb129","","500","500","fixation","","<div class = centerbox><div class = fixation>+</div></div>","none","500","practice","","","","","","","","",""
"987","66","poldrack-categorize","37","96314","0.0-36.0","5e0d2800-e146-4490-8d64-bb4e8daeb129","","1500","250","stim","","<div class = centerbox><div class = stroop-stim style = ""color:blue"">GREEN</div></div>","66,71,82","1500","practice","true","66","500","incongruent","blue","green","","",""
"-1","-1","poldrack-single-stim","38","97073","0.0-37.0","5e0d2800-e146-4490-8d64-bb4e8daeb129","","500","500","fixation","","<div class = centerbox><div class = fixation>+</div></div>","none","500","practice","","","","","","","","",""
"1198","82","poldrack-categorize","39","99582","0.0-38.0","5e0d2800-e146-4490-8d64-bb4e8daeb129","","1500","250","stim","","<div class = centerbox><div class = stroop-stim style = ""color:red"">GREEN</div></div>","66,71,82","1500","practice","true","82","500","incongruent","red","green","","",""
"-1","-1","poldrack-single-stim","40","100343","0.0-39.0","5e0d2800-e146-4490-8d64-bb4e8daeb129","","500","500","fixation","","<div class = centerbox><div class = fixation>+</div></div>","none","500","practice","","","","","","","","",""
"916","66","poldrack-categorize","41","102856","0.0-40.0","5e0d2800-e146-4490-8d64-bb4e8daeb129","","1500","250","stim","","<div class = centerbox><div class = stroop-stim style = ""color:blue"">RED</div></div>","66,71,82","1500","practice","true","66","500","incongruent","blue","red","","",""
"-1","-1","poldrack-single-stim","42","103617","0.0-41.0","5e0d2800-e146-4490-8d64-bb4e8daeb129","","500","500","fixation","","<div class = centerbox><div class = fixation>+</div></div>","none","500","practice","","","","","","","","",""
"691","82","poldrack-categorize","43","106130","0.0-42.0","5e0d2800-e146-4490-8d64-bb4e8daeb129","","1500","250","stim","","<div class = centerbox><div class = stroop-stim style = ""color:red"">GREEN</div></div>","66,71,82","1500","practice","true","82","500","incongruent","red","green","","",""
"-1","-1","poldrack-single-stim","44","106891","0.0-43.0","5e0d2800-e146-4490-8d64-bb4e8daeb129","","500","500","fixation","","<div class = centerbox><div class = fixation>+</div></div>","none","500","practice","","","","","","","","",""
"871","71","poldrack-categorize","45","109404","0.0-44.0","5e0d2800-e146-4490-8d64-bb4e8daeb129","","1500","250","stim","","<div class = centerbox><div class = stroop-stim style = ""color:green"">BLUE</div></div>","66,71,82","1500","practice","true","71","500","incongruent","green","blue","","",""
"-1","-1","poldrack-single-stim","46","110158","0.0-45.0","5e0d2800-e146-4490-8d64-bb4e8daeb129","","500","500","fixation","","<div class = centerbox><div class = fixation>+</div></div>","none","500","practice","","","","","","","","",""
"636","66","poldrack-categorize","47","112672","0.0-46.0","5e0d2800-e146-4490-8d64-bb4e8daeb129","","1500","250","stim","","<div class = centerbox><div class = stroop-stim style = ""color:blue"">BLUE</div></div>","66,71,82","1500","practice","true","66","500","congruent","blue","blue","","",""
"-1","-1","poldrack-single-stim","48","113432","0.0-47.0","5e0d2800-e146-4490-8d64-bb4e8daeb129","","500","500","fixation","","<div class = centerbox><div class = fixation>+</div></div>","none","500","practice","","","","","","","","",""
"523","66","poldrack-categorize","49","115945","0.0-48.0","5e0d2800-e146-4490-8d64-bb4e8daeb129","","1500","250","stim","","<div class = centerbox><div class = stroop-stim style = ""color:blue"">BLUE</div></div>","66,71,82","1500","practice","true","66","500","congruent","blue","blue","","",""
"-1","-1","poldrack-single-stim","50","116706","0.0-49.0","5e0d2800-e146-4490-8d64-bb4e8daeb129","","500","500","fixation","","<div class = centerbox><div class = fixation>+</div></div>","none","500","practice","","","","","","","","",""
"816","82","poldrack-categorize","51","119219","0.0-50.0","5e0d2800-e146-4490-8d64-bb4e8daeb129","","1500","250","stim","","<div class = centerbox><div class = stroop-stim style = ""color:red"">RED</div></div>","66,71,82","1500","practice","true","82","500","congruent","red","red","","",""
"4115","13","poldrack-text","52","123587","0.0-52.0","5e0d2800-e146-4490-8d64-bb4e8daeb129","<div class = centerbox><p class = center-block-text>We will now start the test. Respond exactly like you did during practice.</p><p class = center-block-text>Press <strong>enter</strong> to begin the test.</p></div>","4115","1000","test_intro","","","","","","","","","","","","","",""
"-1","-1","poldrack-single-stim","53","125094","0.0-53.0","5e0d2800-e146-4490-8d64-bb4e8daeb129","","500","500","fixation","","<div class = centerbox><div class = fixation>+</div></div>","none","500","test","","","","","","","","",""
"1168","82","poldrack-categorize","54","127601","0.0-54.0","5e0d2800-e146-4490-8d64-bb4e8daeb129","","1500","250","stim","","<div class = centerbox><div class = stroop-stim style = ""color:red"">BLUE</div></div>","66,71,82","1500","test","true","82","500","incongruent","red","blue","","",""
"-1","-1","poldrack-single-stim","55","128362","0.0-55.0","5e0d2800-e146-4490-8d64-bb4e8daeb129","","500","500","fixation","","<div class = centerbox><div class = fixation>+</div></div>","none","500","test","","","","","","","","",""
"681","82","poldrack-categorize","56","130875","0.0-56.0","5e0d2800-e146-4490-8d64-bb4e8daeb129","","1500","250","stim","","<div class = centerbox><div class = stroop-stim style = ""color:red"">RED</div></div>","66,71,82","1500","test","true","82","500","congruent","red","red","","",""
"-1","-1","poldrack-single-stim","57","131630","0.0-57.0","5e0d2800-e146-4490-8d64-bb4e8daeb129","","500","500","fixation","","<div class = centerbox><div class = fixation>+</div></div>","none","500","test","","","","","","","","",""
"731","82","poldrack-categorize","58","134143","0.0-58.0","5e0d2800-e146-4490-8d64-bb4e8daeb129","","1500","250","stim","","<div class = centerbox><div class = stroop-stim style = ""color:red"">BLUE</div></div>","66,71,82","1500","test","true","82","500","incongruent","red","blue","","",""
"-1","-1","poldrack-single-stim","59","134904","0.0-59.0","5e0d2800-e146-4490-8d64-bb4e8daeb129","","500","500","fixation","","<div class = centerbox><div class = fixation>+</div></div>","none","500","test","","","","","","","","",""
"858","82","poldrack-categorize","60","137417","0.0-60.0","5e0d2800-e146-4490-8d64-bb4e8daeb129","","1500","250","stim","","<div class = centerbox><div class = stroop-stim style = ""color:red"">GREEN</div></div>","66,71,82","1500","test","true","82","500","incongruent","red","green","","",""
"-1","-1","poldrack-single-stim","61","138177","0.0-61.0","5e0d2800-e146-4490-8d64-bb4e8daeb129","","500","500","fixation","","<div class = centerbox><div class = fixation>+</div></div>","none","500","test","","","","","","","","",""
"633","82","poldrack-categorize","62","140691","0.0-62.0","5e0d2800-e146-4490-8d64-bb4e8daeb129","","1500","250","stim","","<div class = centerbox><div class = stroop-stim style = ""color:red"">GREEN</div></div>","66,71,82","1500","test","true","82","500","incongruent","red","green","","",""
"-1","-1","poldrack-single-stim","63","141451","0.0-63.0","5e0d2800-e146-4490-8d64-bb4e8daeb129","","500","500","fixation","","<div class = centerbox><div class = fixation>+</div></div>","none","500","test","","","","","","","","",""
"767","82","poldrack-categorize","64","143965","0.0-64.0","5e0d2800-e146-4490-8d64-bb4e8daeb129","","1500","250","stim","","<div class = centerbox><div class = stroop-stim style = ""color:red"">GREEN</div></div>","66,71,82","1500","test","true","82","500","incongruent","red","green","","",""
"-1","-1","poldrack-single-stim","65","144725","0.0-65.0","5e0d2800-e146-4490-8d64-bb4e8daeb129","","500","500","fixation","","<div class = centerbox><div class = fixation>+</div></div>","none","500","test","","","","","","","","",""
"829","82","poldrack-categorize","66","147238","0.0-66.0","5e0d2800-e146-4490-8d64-bb4e8daeb129","","1500","250","stim","","<div class = centerbox><div class = stroop-stim style = ""color:red"">RED</div></div>","66,71,82","1500","test","true","82","500","congruent","red","red","","",""
"-1","-1","poldrack-single-stim","67","147999","0.0-67.0","5e0d2800-e146-4490-8d64-bb4e8daeb129","","500","500","fixation","","<div class = centerbox><div class = fixation>+</div></div>","none","500","test","","","","","","","","",""
"673","82","poldrack-categorize","68","150512","0.0-68.0","5e0d2800-e146-4490-8d64-bb4e8daeb129","","1500","250","stim","","<div class = centerbox><div class = stroop-stim style = ""color:red"">BLUE</div></div>","66,71,82","1500","test","true","82","500","incongruent","red","blue","","",""
"-1","-1","poldrack-single-stim","69","151273","0.0-69.0","5e0d2800-e146-4490-8d64-bb4e8daeb129","","500","500","fixation","","<div class = centerbox><div class = fixation>+</div></div>","none","500","test","","","","","","","","",""
"753","82","poldrack-categorize","70","153786","0.0-70.0","5e0d2800-e146-4490-8d64-bb4e8daeb129","","1500","250","stim","","<div class = centerbox><div class = stroop-stim style = ""color:red"">GREEN</div></div>","66,71,82","1500","test","true","82","500","incongruent","red","green","","",""
"-1","-1","poldrack-single-stim","71","154546","0.0-71.0","5e0d2800-e146-4490-8d64-bb4e8daeb129","","500","500","fixation","","<div class = centerbox><div class = fixation>+</div></div>","none","500","test","","","","","","","","",""
"1103","66","poldrack-categorize","72","157060","0.0-72.0","5e0d2800-e146-4490-8d64-bb4e8daeb129","","1500","250","stim","","<div class = centerbox><div class = stroop-stim style = ""color:blue"">GREEN</div></div>","66,71,82","1500","test","true","66","500","incongruent","blue","green","","",""
"-1","-1","poldrack-single-stim","73","157820","0.0-73.0","5e0d2800-e146-4490-8d64-bb4e8daeb129","","500","500","fixation","","<div class = centerbox><div class = fixation>+</div></div>","none","500","test","","","","","","","","",""
"787","82","poldrack-categorize","74","160333","0.0-74.0","5e0d2800-e146-4490-8d64-bb4e8daeb129","","1500","250","stim","","<div class = centerbox><div class = stroop-stim style = ""color:red"">RED</div></div>","66,71,82","1500","test","true","82","500","congruent","red","red","","",""
"-1","-1","poldrack-single-stim","75","161088","0.0-75.0","5e0d2800-e146-4490-8d64-bb4e8daeb129","","500","500","fixation","","<div class = centerbox><div class = fixation>+</div></div>","none","500","test","","","","","","","","",""
"779","66","poldrack-categorize","76","163596","0.0-76.0","5e0d2800-e146-4490-8d64-bb4e8daeb129","","1500","250","stim","","<div class = centerbox><div class = stroop-stim style = ""color:blue"">RED</div></div>","66,71,82","1500","test","true","66","500","incongruent","blue","red","","",""
"-1","-1","poldrack-single-stim","77","164353","0.0-77.0","5e0d2800-e146-4490-8d64-bb4e8daeb129","","500","500","fixation","","<div class = centerbox><div class = fixation>+</div></div>","none","500","test","","","","","","","","",""
"841","71","poldrack-categorize","78","166864","0.0-78.0","5e0d2800-e146-4490-8d64-bb4e8daeb129","","1500","250","stim","","<div class = centerbox><div class = stroop-stim style = ""color:green"">BLUE</div></div>","66,71,82","1500","test","true","71","500","incongruent","green","blue","","",""
"-1","-1","poldrack-single-stim","79","167624","0.0-79.0","5e0d2800-e146-4490-8d64-bb4e8daeb129","","500","500","fixation","","<div class = centerbox><div class = fixation>+</div></div>","none","500","test","","","","","","","","",""
"703","82","poldrack-categorize","80","170138","0.0-80.0","5e0d2800-e146-4490-8d64-bb4e8daeb129","","1500","250","stim","","<div class = centerbox><div class = stroop-stim style = ""color:red"">RED</div></div>","66,71,82","1500","test","true","82","500","congruent","red","red","","",""
"-1","-1","poldrack-single-stim","81","170898","0.0-81.0","5e0d2800-e146-4490-8d64-bb4e8daeb129","","500","500","fixation","","<div class = centerbox><div class = fixation>+</div></div>","none","500","test","","","","","","","","",""
"702","71","poldrack-categorize","82","173411","0.0-82.0","5e0d2800-e146-4490-8d64-bb4e8daeb129","","1500","250","stim","","<div class = centerbox><div class = stroop-stim style = ""color:green"">GREEN</div></div>","66,71,82","1500","test","true","71","500","congruent","green","green","","",""
"-1","-1","poldrack-single-stim","83","174172","0.0-83.0","5e0d2800-e146-4490-8d64-bb4e8daeb129","","500","500","fixation","","<div class = centerbox><div class = fixation>+</div></div>","none","500","test","","","","","","","","",""
"820","71","poldrack-categorize","84","176685","0.0-84.0","5e0d2800-e146-4490-8d64-bb4e8daeb129","","1500","250","stim","","<div class = centerbox><div class = stroop-stim style = ""color:green"">GREEN</div></div>","66,71,82","1500","test","true","71","500","congruent","green","green","","",""
"-1","-1","poldrack-single-stim","85","177446","0.0-85.0","5e0d2800-e146-4490-8d64-bb4e8daeb129","","500","500","fixation","","<div class = centerbox><div class = fixation>+</div></div>","none","500","test","","","","","","","","",""
"664","71","poldrack-categorize","86","179959","0.0-86.0","5e0d2800-e146-4490-8d64-bb4e8daeb129","","1500","250","stim","","<div class = centerbox><div class = stroop-stim style = ""color:green"">GREEN</div></div>","66,71,82","1500","test","true","71","500","congruent","green","green","","",""
"-1","-1","poldrack-single-stim","87","180721","0.0-87.0","5e0d2800-e146-4490-8d64-bb4e8daeb129","","500","500","fixation","","<div class = centerbox><div class = fixation>+</div></div>","none","500","test","","","","","","","","",""
"855","66","poldrack-categorize","88","183233","0.0-88.0","5e0d2800-e146-4490-8d64-bb4e8daeb129","","1500","250","stim","","<div class = centerbox><div class = stroop-stim style = ""color:green"">BLUE</div></div>","66,71,82","1500","test","false","71","500","incongruent","green","blue","","",""
"-1","-1","poldrack-single-stim","89","183993","0.0-89.0","5e0d2800-e146-4490-8d64-bb4e8daeb129","","500","500","fixation","","<div class = centerbox><div class = fixation>+</div></div>","none","500","test","","","","","","","","",""
"1308","71","poldrack-categorize","90","186507","0.0-90.0","5e0d2800-e146-4490-8d64-bb4e8daeb129","","1500","250","stim","","<div class = centerbox><div class = stroop-stim style = ""color:green"">RED</div></div>","66,71,82","1500","test","true","71","500","incongruent","green","red","","",""
"-1","-1","poldrack-single-stim","91","187267","0.0-91.0","5e0d2800-e146-4490-8d64-bb4e8daeb129","","500","500","fixation","","<div class = centerbox><div class = fixation>+</div></div>","none","500","test","","","","","","","","",""
"1066","66","poldrack-categorize","92","189778","0.0-92.0","5e0d2800-e146-4490-8d64-bb4e8daeb129","","1500","250","stim","","<div class = centerbox><div class = stroop-stim style = ""color:blue"">BLUE</div></div>","66,71,82","1500","test","true","66","500","congruent","blue","blue","","",""
"-1","-1","poldrack-single-stim","93","190535","0.0-93.0","5e0d2800-e146-4490-8d64-bb4e8daeb129","","500","500","fixation","","<div class = centerbox><div class = fixation>+</div></div>","none","500","test","","","","","","","","",""
"1326","66","poldrack-categorize","94","193048","0.0-94.0","5e0d2800-e146-4490-8d64-bb4e8daeb129","","1500","250","stim","","<div class = centerbox><div class = stroop-stim style = ""color:blue"">RED</div></div>","66,71,82","1500","test","true","66","500","incongruent","blue","red","","",""
"-1","-1","poldrack-single-stim","95","193809","0.0-95.0","5e0d2800-e146-4490-8d64-bb4e8daeb129","","500","500","fixation","","<div class = centerbox><div class = fixation>+</div></div>","none","500","test","","","","","","","","",""
"678","82","poldrack-categorize","96","196322","0.0-96.0","5e0d2800-e146-4490-8d64-bb4e8daeb129","","1500","250","stim","","<div class = centerbox><div class = stroop-stim style = ""color:red"">RED</div></div>","66,71,82","1500","test","true","82","500","congruent","red","red","","",""
"-1","-1","poldrack-single-stim","97","197083","0.0-97.0","5e0d2800-e146-4490-8d64-bb4e8daeb129","","500","500","fixation","","<div class = centerbox><div class = fixation>+</div></div>","none","500","test","","","","","","","","",""
"1123","82","poldrack-categorize","98","199596","0.0-98.0","5e0d2800-e146-4490-8d64-bb4e8daeb129","","1500","250","stim","","<div class = centerbox><div class = stroop-stim style = ""color:red"">RED</div></div>","66,71,82","1500","test","true","82","500","congruent","red","red","","",""
"-1","-1","poldrack-single-stim","99","200356","0.0-99.0","5e0d2800-e146-4490-8d64-bb4e8daeb129","","500","500","fixation","","<div class = centerbox><div class = fixation>+</div></div>","none","500","test","","","","","","","","",""
"538","82","poldrack-categorize","100","202870","0.0-100.0","5e0d2800-e146-4490-8d64-bb4e8daeb129","","1500","250","stim","","<div class = centerbox><div class = stroop-stim style = ""color:red"">RED</div></div>","66,71,82","1500","test","true","82","500","congruent","red","red","","",""
"-1","-1","poldrack-single-stim","101","203630","0.0-101.0","5e0d2800-e146-4490-8d64-bb4e8daeb129","","500","500","fixation","","<div class = centerbox><div class = fixation>+</div></div>","none","500","test","","","","","","","","",""
"614","82","poldrack-categorize","102","206140","0.0-102.0","5e0d2800-e146-4490-8d64-bb4e8daeb129","","1500","250","stim","","<div class = centerbox><div class = stroop-stim style = ""color:red"">GREEN</div></div>","66,71,82","1500","test","true","82","500","incongruent","red","green","","",""
"-1","-1","poldrack-single-stim","103","206894","0.0-103.0","5e0d2800-e146-4490-8d64-bb4e8daeb129","","500","500","fixation","","<div class = centerbox><div class = fixation>+</div></div>","none","500","test","","","","","","","","",""
"712","66","poldrack-categorize","104","209406","0.0-104.0","5e0d2800-e146-4490-8d64-bb4e8daeb129","","1500","250","stim","","<div class = centerbox><div class = stroop-stim style = ""color:blue"">RED</div></div>","66,71,82","1500","test","true","66","500","incongruent","blue","red","","",""
"-1","-1","poldrack-single-stim","105","210164","0.0-105.0","5e0d2800-e146-4490-8d64-bb4e8daeb129","","500","500","fixation","","<div class = centerbox><div class = fixation>+</div></div>","none","500","test","","","","","","","","",""
"776","66","poldrack-categorize","106","212680","0.0-106.0","5e0d2800-e146-4490-8d64-bb4e8daeb129","","1500","250","stim","","<div class = centerbox><div class = stroop-stim style = ""color:blue"">BLUE</div></div>","66,71,82","1500","test","true","66","500","congruent","blue","blue","","",""
"-1","-1","poldrack-single-stim","107","213440","0.0-107.0","5e0d2800-e146-4490-8d64-bb4e8daeb129","","500","500","fixation","","<div class = centerbox><div class = fixation>+</div></div>","none","500","test","","","","","","","","",""
"573","66","poldrack-categorize","108","215953","0.0-108.0","5e0d2800-e146-4490-8d64-bb4e8daeb129","","1500","250","stim","","<div class = centerbox><div class = stroop-stim style = ""color:blue"">GREEN</div></div>","66,71,82","1500","test","true","66","500","incongruent","blue","green","","",""
"-1","-1","poldrack-single-stim","109","216714","0.0-109.0","5e0d2800-e146-4490-8d64-bb4e8daeb129","","500","500","fixation","","<div class = centerbox><div class = fixation>+</div></div>","none","500","test","","","","","","","","",""
"659","71","poldrack-categorize","110","219227","0.0-110.0","5e0d2800-e146-4490-8d64-bb4e8daeb129","","1500","250","stim","","<div class = centerbox><div class = stroop-stim style = ""color:green"">GREEN</div></div>","66,71,82","1500","test","true","71","500","congruent","green","green","","",""
"-1","-1","poldrack-single-stim","111","219988","0.0-111.0","5e0d2800-e146-4490-8d64-bb4e8daeb129","","500","500","fixation","","<div class = centerbox><div class = fixation>+</div></div>","none","500","test","","","","","","","","",""
"769","82","poldrack-categorize","112","222501","0.0-112.0","5e0d2800-e146-4490-8d64-bb4e8daeb129","","1500","250","stim","","<div class = centerbox><div class = stroop-stim style = ""color:red"">GREEN</div></div>","66,71,82","1500","test","true","82","500","incongruent","red","green","","",""
"-1","-1","poldrack-single-stim","113","223256","0.0-113.0","5e0d2800-e146-4490-8d64-bb4e8daeb129","","500","500","fixation","","<div class = centerbox><div class = fixation>+</div></div>","none","500","test","","","","","","","","",""
"731","71","poldrack-categorize","114","225769","0.0-114.0","5e0d2800-e146-4490-8d64-bb4e8daeb129","","1500","250","stim","","<div class = centerbox><div class = stroop-stim style = ""color:green"">GREEN</div></div>","66,71,82","1500","test","true","71","500","congruent","green","green","","",""
"-1","-1","poldrack-single-stim","115","226530","0.0-115.0","5e0d2800-e146-4490-8d64-bb4e8daeb129","","500","500","fixation","","<div class = centerbox><div class = fixation>+</div></div>","none","500","test","","","","","","","","",""
"1011","71","poldrack-categorize","116","229043","0.0-116.0","5e0d2800-e146-4490-8d64-bb4e8daeb129","","1500","250","stim","","<div class = centerbox><div class = stroop-stim style = ""color:green"">RED</div></div>","66,71,82","1500","test","true","71","500","incongruent","green","red","","",""
"-1","-1","poldrack-single-stim","117","229803","0.0-117.0","5e0d2800-e146-4490-8d64-bb4e8daeb129","","500","500","fixation","","<div class = centerbox><div class = fixation>+</div></div>","none","500","test","","","","","","","","",""
"586","66","poldrack-categorize","118","232317","0.0-118.0","5e0d2800-e146-4490-8d64-bb4e8daeb129","","1500","250","stim","","<div class = centerbox><div class = stroop-stim style = ""color:blue"">BLUE</div></div>","66,71,82","1500","test","true","66","500","congruent","blue","blue","","",""
"-1","-1","poldrack-single-stim","119","233071","0.0-119.0","5e0d2800-e146-4490-8d64-bb4e8daeb129","","500","500","fixation","","<div class = centerbox><div class = fixation>+</div></div>","none","500","test","","","","","","","","",""
"819","82","poldrack-categorize","120","235585","0.0-120.0","5e0d2800-e146-4490-8d64-bb4e8daeb129","","1500","250","stim","","<div class = centerbox><div class = stroop-stim style = ""color:red"">BLUE</div></div>","66,71,82","1500","test","true","82","500","incongruent","red","blue","","",""
"-1","-1","poldrack-single-stim","121","236345","0.0-121.0","5e0d2800-e146-4490-8d64-bb4e8daeb129","","500","500","fixation","","<div class = centerbox><div class = fixation>+</div></div>","none","500","test","","","","","","","","",""
"705","66","poldrack-categorize","122","238858","0.0-122.0","5e0d2800-e146-4490-8d64-bb4e8daeb129","","1500","250","stim","","<div class = centerbox><div class = stroop-stim style = ""color:blue"">BLUE</div></div>","66,71,82","1500","test","true","66","500","congruent","blue","blue","","",""
"-1","-1","poldrack-single-stim","123","239619","0.0-123.0","5e0d2800-e146-4490-8d64-bb4e8daeb129","","500","500","fixation","","<div class = centerbox><div class = fixation>+</div></div>","none","500","test","","","","","","","","",""
"1023","66","poldrack-categorize","124","242132","0.0-124.0","5e0d2800-e146-4490-8d64-bb4e8daeb129","","1500","250","stim","","<div class = centerbox><div class = stroop-stim style = ""color:blue"">BLUE</div></div>","66,71,82","1500","test","true","66","500","congruent","blue","blue","","",""
"-1","-1","poldrack-single-stim","125","242893","0.0-125.0","5e0d2800-e146-4490-8d64-bb4e8daeb129","","500","500","fixation","","<div class = centerbox><div class = fixation>+</div></div>","none","500","test","","","","","","","","",""
"774","66","poldrack-categorize","126","245406","0.0-126.0","5e0d2800-e146-4490-8d64-bb4e8daeb129","","1500","250","stim","","<div class = centerbox><div class = stroop-stim style = ""color:blue"">BLUE</div></div>","66,71,82","1500","test","true","66","500","congruent","blue","blue","","",""
"-1","-1","poldrack-single-stim","127","246167","0.0-127.0","5e0d2800-e146-4490-8d64-bb4e8daeb129","","500","500","fixation","","<div class = centerbox><div class = fixation>+</div></div>","none","500","test","","","","","","","","",""
"765","82","poldrack-categorize","128","248680","0.0-128.0","5e0d2800-e146-4490-8d64-bb4e8daeb129","","1500","250","stim","","<div class = centerbox><div class = stroop-stim style = ""color:red"">RED</div></div>","66,71,82","1500","test","true","82","500","congruent","red","red","","",""
"-1","-1","poldrack-single-stim","129","249440","0.0-129.0","5e0d2800-e146-4490-8d64-bb4e8daeb129","","500","500","fixation","","<div class = centerbox><div class = fixation>+</div></div>","none","500","test","","","","","","","","",""
"954","71","poldrack-categorize","130","251948","0.0-130.0","5e0d2800-e146-4490-8d64-bb4e8daeb129","","1500","250","stim","","<div class = centerbox><div class = stroop-stim style = ""color:green"">GREEN</div></div>","66,71,82","1500","test","true","71","500","congruent","green","green","","",""
"-1","-1","poldrack-single-stim","131","252709","0.0-131.0","5e0d2800-e146-4490-8d64-bb4e8daeb129","","500","500","fixation","","<div class = centerbox><div class = fixation>+</div></div>","none","500","test","","","","","","","","",""
"1117","71","poldrack-categorize","132","255222","0.0-132.0","5e0d2800-e146-4490-8d64-bb4e8daeb129","","1500","250","stim","","<div class = centerbox><div class = stroop-stim style = ""color:green"">BLUE</div></div>","66,71,82","1500","test","true","71","500","incongruent","green","blue","","",""
"-1","-1","poldrack-single-stim","133","255981","0.0-133.0","5e0d2800-e146-4490-8d64-bb4e8daeb129","","500","500","fixation","","<div class = centerbox><div class = fixation>+</div></div>","none","500","test","","","","","","","","",""
"805","82","poldrack-categorize","134","258495","0.0-134.0","5e0d2800-e146-4490-8d64-bb4e8daeb129","","1500","250","stim","","<div class = centerbox><div class = stroop-stim style = ""color:red"">BLUE</div></div>","66,71,82","1500","test","true","82","500","incongruent","red","blue","","",""
"-1","-1","poldrack-single-stim","135","259256","0.0-135.0","5e0d2800-e146-4490-8d64-bb4e8daeb129","","500","500","fixation","","<div class = centerbox><div class = fixation>+</div></div>","none","500","test","","","","","","","","",""
"731","71","poldrack-categorize","136","261769","0.0-136.0","5e0d2800-e146-4490-8d64-bb4e8daeb129","","1500","250","stim","","<div class = centerbox><div class = stroop-stim style = ""color:green"">GREEN</div></div>","66,71,82","1500","test","true","71","500","congruent","green","green","","",""
"-1","-1","poldrack-single-stim","137","262530","0.0-137.0","5e0d2800-e146-4490-8d64-bb4e8daeb129","","500","500","fixation","","<div class = centerbox><div class = fixation>+</div></div>","none","500","test","","","","","","","","",""
"825","66","poldrack-categorize","138","265040","0.0-138.0","5e0d2800-e146-4490-8d64-bb4e8daeb129","","1500","250","stim","","<div class = centerbox><div class = stroop-stim style = ""color:blue"">BLUE</div></div>","66,71,82","1500","test","true","66","500","congruent","blue","blue","","",""
"-1","-1","poldrack-single-stim","139","265794","0.0-139.0","5e0d2800-e146-4490-8d64-bb4e8daeb129","","500","500","fixation","","<div class = centerbox><div class = fixation>+</div></div>","none","500","test","","","","","","","","",""
"944","66","poldrack-categorize","140","268305","0.0-140.0","5e0d2800-e146-4490-8d64-bb4e8daeb129","","1500","250","stim","","<div class = centerbox><div class = stroop-stim style = ""color:blue"">GREEN</div></div>","66,71,82","1500","test","true","66","500","incongruent","blue","green","","",""
"-1","-1","poldrack-single-stim","141","269066","0.0-141.0","5e0d2800-e146-4490-8d64-bb4e8daeb129","","500","500","fixation","","<div class = centerbox><div class = fixation>+</div></div>","none","500","test","","","","","","","","",""
"726","71","poldrack-categorize","142","271579","0.0-142.0","5e0d2800-e146-4490-8d64-bb4e8daeb129","","1500","250","stim","","<div class = centerbox><div class = stroop-stim style = ""color:green"">GREEN</div></div>","66,71,82","1500","test","true","71","500","congruent","green","green","","",""
"-1","-1","poldrack-single-stim","143","272340","0.0-143.0","5e0d2800-e146-4490-8d64-bb4e8daeb129","","500","500","fixation","","<div class = centerbox><div class = fixation>+</div></div>","none","500","test","","","","","","","","",""
"1070","71","poldrack-categorize","144","274853","0.0-144.0","5e0d2800-e146-4490-8d64-bb4e8daeb129","","1500","250","stim","","<div class = centerbox><div class = stroop-stim style = ""color:green"">BLUE</div></div>","66,71,82","1500","test","true","71","500","incongruent","green","blue","","",""
"-1","-1","poldrack-single-stim","145","275612","0.0-145.0","5e0d2800-e146-4490-8d64-bb4e8daeb129","","500","500","fixation","","<div class = centerbox><div class = fixation>+</div></div>","none","500","test","","","","","","","","",""
"812","71","poldrack-categorize","146","278127","0.0-146.0","5e0d2800-e146-4490-8d64-bb4e8daeb129","","1500","250","stim","","<div class = centerbox><div class = stroop-stim style = ""color:green"">BLUE</div></div>","66,71,82","1500","test","true","71","500","incongruent","green","blue","","",""
"-1","-1","poldrack-single-stim","147","278883","0.0-147.0","5e0d2800-e146-4490-8d64-bb4e8daeb129","","500","500","fixation","","<div class = centerbox><div class = fixation>+</div></div>","none","500","test","","","","","","","","",""
"955","66","poldrack-categorize","148","281395","0.0-148.0","5e0d2800-e146-4490-8d64-bb4e8daeb129","","1500","250","stim","","<div class = centerbox><div class = stroop-stim style = ""color:blue"">RED</div></div>","66,71,82","1500","test","true","66","500","incongruent","blue","red","","",""
"-1","-1","poldrack-single-stim","149","282155","0.0-149.0","5e0d2800-e146-4490-8d64-bb4e8daeb129","","500","500","fixation","","<div class = centerbox><div class = fixation>+</div></div>","none","500","test","","","","","","","","",""
"830","71","poldrack-categorize","150","284668","0.0-150.0","5e0d2800-e146-4490-8d64-bb4e8daeb129","","1500","250","stim","","<div class = centerbox><div class = stroop-stim style = ""color:green"">GREEN</div></div>","66,71,82","1500","test","true","71","500","congruent","green","green","","",""
"-1","-1","poldrack-single-stim","151","285429","0.0-151.0","5e0d2800-e146-4490-8d64-bb4e8daeb129","","500","500","fixation","","<div class = centerbox><div class = fixation>+</div></div>","none","500","test","","","","","","","","",""
"619","66","poldrack-categorize","152","287943","0.0-152.0","5e0d2800-e146-4490-8d64-bb4e8daeb129","","1500","250","stim","","<div class = centerbox><div class = stroop-stim style = ""color:blue"">BLUE</div></div>","66,71,82","1500","test","true","66","500","congruent","blue","blue","","",""
"-1","-1","poldrack-single-stim","153","288703","0.0-153.0","5e0d2800-e146-4490-8d64-bb4e8daeb129","","500","500","fixation","","<div class = centerbox><div class = fixation>+</div></div>","none","500","test","","","","","","","","",""
"1120","66","poldrack-categorize","154","291212","0.0-154.0","5e0d2800-e146-4490-8d64-bb4e8daeb129","","1500","250","stim","","<div class = centerbox><div class = stroop-stim style = ""color:blue"">RED</div></div>","66,71,82","1500","test","true","66","500","incongruent","blue","red","","",""
"-1","-1","poldrack-single-stim","155","291971","0.0-155.0","5e0d2800-e146-4490-8d64-bb4e8daeb129","","500","500","fixation","","<div class = centerbox><div class = fixation>+</div></div>","none","500","test","","","","","","","","",""
"1187","66","poldrack-categorize","156","294484","0.0-156.0","5e0d2800-e146-4490-8d64-bb4e8daeb129","","1500","250","stim","","<div class = centerbox><div class = stroop-stim style = ""color:blue"">BLUE</div></div>","66,71,82","1500","test","true","66","500","congruent","blue","blue","","",""
"-1","-1","poldrack-single-stim","157","295245","0.0-157.0","5e0d2800-e146-4490-8d64-bb4e8daeb129","","500","500","fixation","","<div class = centerbox><div class = fixation>+</div></div>","none","500","test","","","","","","","","",""
"683","82","poldrack-categorize","158","297758","0.0-158.0","5e0d2800-e146-4490-8d64-bb4e8daeb129","","1500","250","stim","","<div class = centerbox><div class = stroop-stim style = ""color:red"">RED</div></div>","66,71,82","1500","test","true","82","500","congruent","red","red","","",""
"-1","-1","poldrack-single-stim","159","298518","0.0-159.0","5e0d2800-e146-4490-8d64-bb4e8daeb129","","500","500","fixation","","<div class = centerbox><div class = fixation>+</div></div>","none","500","test","","","","","","","","",""
"914","66","poldrack-categorize","160","301032","0.0-160.0","5e0d2800-e146-4490-8d64-bb4e8daeb129","","1500","250","stim","","<div class = centerbox><div class = stroop-stim style = ""color:blue"">GREEN</div></div>","66,71,82","1500","test","true","66","500","incongruent","blue","green","","",""
"-1","-1","poldrack-single-stim","161","301793","0.0-161.0","5e0d2800-e146-4490-8d64-bb4e8daeb129","","500","500","fixation","","<div class = centerbox><div class = fixation>+</div></div>","none","500","test","","","","","","","","",""
"1127","66","poldrack-categorize","162","304306","0.0-162.0","5e0d2800-e146-4490-8d64-bb4e8daeb129","","1500","250","stim","","<div class = centerbox><div class = stroop-stim style = ""color:blue"">GREEN</div></div>","66,71,82","1500","test","true","66","500","incongruent","blue","green","","",""
"-1","-1","poldrack-single-stim","163","305066","0.0-163.0","5e0d2800-e146-4490-8d64-bb4e8daeb129","","500","500","fixation","","<div class = centerbox><div class = fixation>+</div></div>","none","500","test","","","","","","","","",""
"1206","71","poldrack-categorize","164","307579","0.0-164.0","5e0d2800-e146-4490-8d64-bb4e8daeb129","","1500","250","stim","","<div class = centerbox><div class = stroop-stim style = ""color:green"">RED</div></div>","66,71,82","1500","test","true","71","500","incongruent","green","red","","",""
"-1","-1","poldrack-single-stim","165","308340","0.0-165.0","5e0d2800-e146-4490-8d64-bb4e8daeb129","","500","500","fixation","","<div class = centerbox><div class = fixation>+</div></div>","none","500","test","","","","","","","","",""
"827","82","poldrack-categorize","166","310853","0.0-166.0","5e0d2800-e146-4490-8d64-bb4e8daeb129","","1500","250","stim","","<div class = centerbox><div class = stroop-stim style = ""color:red"">BLUE</div></div>","66,71,82","1500","test","true","82","500","incongruent","red","blue","","",""
"-1","-1","poldrack-single-stim","167","311614","0.0-167.0","5e0d2800-e146-4490-8d64-bb4e8daeb129","","500","500","fixation","","<div class = centerbox><div class = fixation>+</div></div>","none","500","test","","","","","","","","",""
"1458","66","poldrack-categorize","168","314127","0.0-168.0","5e0d2800-e146-4490-8d64-bb4e8daeb129","","1500","250","stim","","<div class = centerbox><div class = stroop-stim style = ""color:blue"">BLUE</div></div>","66,71,82","1500","test","true","66","500","congruent","blue","blue","","",""
"-1","-1","poldrack-single-stim","169","314888","0.0-169.0","5e0d2800-e146-4490-8d64-bb4e8daeb129","","500","500","fixation","","<div class = centerbox><div class = fixation>+</div></div>","none","500","test","","","","","","","","",""
"976","71","poldrack-categorize","170","317401","0.0-170.0","5e0d2800-e146-4490-8d64-bb4e8daeb129","","1500","250","stim","","<div class = centerbox><div class = stroop-stim style = ""color:green"">RED</div></div>","66,71,82","1500","test","true","71","500","incongruent","green","red","","",""
"-1","-1","poldrack-single-stim","171","318161","0.0-171.0","5e0d2800-e146-4490-8d64-bb4e8daeb129","","500","500","fixation","","<div class = centerbox><div class = fixation>+</div></div>","none","500","test","","","","","","","","",""
"-1","-1","poldrack-categorize","172","320674","0.0-172.0","5e0d2800-e146-4490-8d64-bb4e8daeb129","","1500","250","stim","","<div class = centerbox><div class = stroop-stim style = ""color:green"">RED</div></div>","66,71,82","1500","test","false","71","500","incongruent","green","red","","",""
"-1","-1","poldrack-single-stim","173","321435","0.0-173.0","5e0d2800-e146-4490-8d64-bb4e8daeb129","","500","500","fixation","","<div class = centerbox><div class = fixation>+</div></div>","none","500","test","","","","","","","","",""
"730","71","poldrack-categorize","174","323948","0.0-174.0","5e0d2800-e146-4490-8d64-bb4e8daeb129","","1500","250","stim","","<div class = centerbox><div class = stroop-stim style = ""color:green"">RED</div></div>","66,71,82","1500","test","true","71","500","incongruent","green","red","","",""
"-1","-1","poldrack-single-stim","175","324709","0.0-175.0","5e0d2800-e146-4490-8d64-bb4e8daeb129","","500","500","fixation","","<div class = centerbox><div class = fixation>+</div></div>","none","500","test","","","","","","","","",""
"586","71","poldrack-categorize","176","327216","0.0-176.0","5e0d2800-e146-4490-8d64-bb4e8daeb129","","1500","250","stim","","<div class = centerbox><div class = stroop-stim style = ""color:green"">GREEN</div></div>","66,71,82","1500","test","true","71","500","congruent","green","green","","",""
"-1","-1","poldrack-single-stim","177","327977","0.0-177.0","5e0d2800-e146-4490-8d64-bb4e8daeb129","","500","500","fixation","","<div class = centerbox><div class = fixation>+</div></div>","none","500","test","","","","","","","","",""
"611","66","poldrack-categorize","178","330490","0.0-178.0","5e0d2800-e146-4490-8d64-bb4e8daeb129","","1500","250","stim","","<div class = centerbox><div class = stroop-stim style = ""color:blue"">BLUE</div></div>","66,71,82","1500","test","true","66","500","congruent","blue","blue","","",""
"-1","-1","poldrack-single-stim","179","331251","0.0-179.0","5e0d2800-e146-4490-8d64-bb4e8daeb129","","500","500","fixation","","<div class = centerbox><div class = fixation>+</div></div>","none","500","test","","","","","","","","",""
"1066","82","poldrack-categorize","180","333764","0.0-180.0","5e0d2800-e146-4490-8d64-bb4e8daeb129","","1500","250","stim","","<div class = centerbox><div class = stroop-stim style = ""color:red"">GREEN</div></div>","66,71,82","1500","test","true","82","500","incongruent","red","green","","",""
"-1","-1","poldrack-single-stim","181","334523","0.0-181.0","5e0d2800-e146-4490-8d64-bb4e8daeb129","","500","500","fixation","","<div class = centerbox><div class = fixation>+</div></div>","none","500","test","","","","","","","","",""
"714","82","poldrack-categorize","182","337032","0.0-182.0","5e0d2800-e146-4490-8d64-bb4e8daeb129","","1500","250","stim","","<div class = centerbox><div class = stroop-stim style = ""color:red"">RED</div></div>","66,71,82","1500","test","true","82","500","congruent","red","red","","",""
"-1","-1","poldrack-single-stim","183","337790","0.0-183.0","5e0d2800-e146-4490-8d64-bb4e8daeb129","","500","500","fixation","","<div class = centerbox><div class = fixation>+</div></div>","none","500","test","","","","","","","","",""
"1126","71","poldrack-categorize","184","340306","0.0-184.0","5e0d2800-e146-4490-8d64-bb4e8daeb129","","1500","250","stim","","<div class = centerbox><div class = stroop-stim style = ""color:green"">GREEN</div></div>","66,71,82","1500","test","true","71","500","congruent","green","green","","",""
"-1","-1","poldrack-single-stim","185","341063","0.0-185.0","5e0d2800-e146-4490-8d64-bb4e8daeb129","","500","500","fixation","","<div class = centerbox><div class = fixation>+</div></div>","none","500","test","","","","","","","","",""
"751","66","poldrack-categorize","186","343574","0.0-186.0","5e0d2800-e146-4490-8d64-bb4e8daeb129","","1500","250","stim","","<div class = centerbox><div class = stroop-stim style = ""color:blue"">RED</div></div>","66,71,82","1500","test","true","66","500","incongruent","blue","red","","",""
"-1","-1","poldrack-single-stim","187","344334","0.0-187.0","5e0d2800-e146-4490-8d64-bb4e8daeb129","","500","500","fixation","","<div class = centerbox><div class = fixation>+</div></div>","none","500","test","","","","","","","","",""
"629","66","poldrack-categorize","188","346847","0.0-188.0","5e0d2800-e146-4490-8d64-bb4e8daeb129","","1500","250","stim","","<div class = centerbox><div class = stroop-stim style = ""color:blue"">BLUE</div></div>","66,71,82","1500","test","true","66","500","congruent","blue","blue","","",""
"-1","-1","poldrack-single-stim","189","347608","0.0-189.0","5e0d2800-e146-4490-8d64-bb4e8daeb129","","500","500","fixation","","<div class = centerbox><div class = fixation>+</div></div>","none","500","test","","","","","","","","",""
"733","71","poldrack-categorize","190","350121","0.0-190.0","5e0d2800-e146-4490-8d64-bb4e8daeb129","","1500","250","stim","","<div class = centerbox><div class = stroop-stim style = ""color:green"">GREEN</div></div>","66,71,82","1500","test","true","71","500","congruent","green","green","","",""
"-1","-1","poldrack-single-stim","191","350878","0.0-191.0","5e0d2800-e146-4490-8d64-bb4e8daeb129","","500","500","fixation","","<div class = centerbox><div class = fixation>+</div></div>","none","500","test","","","","","","","","",""
"712","71","poldrack-categorize","192","353389","0.0-192.0","5e0d2800-e146-4490-8d64-bb4e8daeb129","","1500","250","stim","","<div class = centerbox><div class = stroop-stim style = ""color:green"">GREEN</div></div>","66,71,82","1500","test","true","71","500","congruent","green","green","","",""
"-1","-1","poldrack-single-stim","193","354150","0.0-193.0","5e0d2800-e146-4490-8d64-bb4e8daeb129","","500","500","fixation","","<div class = centerbox><div class = fixation>+</div></div>","none","500","test","","","","","","","","",""
"863","66","poldrack-categorize","194","356657","0.0-194.0","5e0d2800-e146-4490-8d64-bb4e8daeb129","","1500","250","stim","","<div class = centerbox><div class = stroop-stim style = ""color:blue"">GREEN</div></div>","66,71,82","1500","test","true","66","500","incongruent","blue","green","","",""
"-1","-1","poldrack-single-stim","195","357418","0.0-195.0","5e0d2800-e146-4490-8d64-bb4e8daeb129","","500","500","fixation","","<div class = centerbox><div class = fixation>+</div></div>","none","500","test","","","","","","","","",""
"641","82","poldrack-categorize","196","359931","0.0-196.0","5e0d2800-e146-4490-8d64-bb4e8daeb129","","1500","250","stim","","<div class = centerbox><div class = stroop-stim style = ""color:red"">RED</div></div>","66,71,82","1500","test","true","82","500","congruent","red","red","","",""
"-1","-1","poldrack-single-stim","197","360692","0.0-197.0","5e0d2800-e146-4490-8d64-bb4e8daeb129","","500","500","fixation","","<div class = centerbox><div class = fixation>+</div></div>","none","500","test","","","","","","","","",""
"662","66","poldrack-categorize","198","363205","0.0-198.0","5e0d2800-e146-4490-8d64-bb4e8daeb129","","1500","250","stim","","<div class = centerbox><div class = stroop-stim style = ""color:blue"">BLUE</div></div>","66,71,82","1500","test","true","66","500","congruent","blue","blue","","",""
"-1","-1","poldrack-single-stim","199","363960","0.0-199.0","5e0d2800-e146-4490-8d64-bb4e8daeb129","","500","500","fixation","","<div class = centerbox><div class = fixation>+</div></div>","none","500","test","","","","","","","","",""
"786","71","poldrack-categorize","200","366473","0.0-200.0","5e0d2800-e146-4490-8d64-bb4e8daeb129","","1500","250","stim","","<div class = centerbox><div class = stroop-stim style = ""color:green"">BLUE</div></div>","66,71,82","1500","test","true","71","500","incongruent","green","blue","","",""
"-1","-1","poldrack-single-stim","201","367233","0.0-201.0","5e0d2800-e146-4490-8d64-bb4e8daeb129","","500","500","fixation","","<div class = centerbox><div class = fixation>+</div></div>","none","500","test","","","","","","","","",""
"827","66","poldrack-categorize","202","369747","0.0-202.0","5e0d2800-e146-4490-8d64-bb4e8daeb129","","1500","250","stim","","<div class = centerbox><div class = stroop-stim style = ""color:blue"">BLUE</div></div>","66,71,82","1500","test","true","66","500","congruent","blue","blue","","",""
"-1","-1","poldrack-single-stim","203","370507","0.0-203.0","5e0d2800-e146-4490-8d64-bb4e8daeb129","","500","500","fixation","","<div class = centerbox><div class = fixation>+</div></div>","none","500","test","","","","","","","","",""
"808","82","poldrack-categorize","204","373020","0.0-204.0","5e0d2800-e146-4490-8d64-bb4e8daeb129","","1500","250","stim","","<div class = centerbox><div class = stroop-stim style = ""color:red"">BLUE</div></div>","66,71,82","1500","test","true","82","500","incongruent","red","blue","","",""
"-1","-1","poldrack-single-stim","205","373781","0.0-205.0","5e0d2800-e146-4490-8d64-bb4e8daeb129","","500","500","fixation","","<div class = centerbox><div class = fixation>+</div></div>","none","500","test","","","","","","","","",""
"510","82","poldrack-categorize","206","376288","0.0-206.0","5e0d2800-e146-4490-8d64-bb4e8daeb129","","1500","250","stim","","<div class = centerbox><div class = stroop-stim style = ""color:red"">RED</div></div>","66,71,82","1500","test","true","82","500","congruent","red","red","","",""
"-1","-1","poldrack-single-stim","207","377049","0.0-207.0","5e0d2800-e146-4490-8d64-bb4e8daeb129","","500","500","fixation","","<div class = centerbox><div class = fixation>+</div></div>","none","500","test","","","","","","","","",""
"880","66","poldrack-categorize","208","379563","0.0-208.0","5e0d2800-e146-4490-8d64-bb4e8daeb129","","1500","250","stim","","<div class = centerbox><div class = stroop-stim style = ""color:blue"">GREEN</div></div>","66,71,82","1500","test","true","66","500","incongruent","blue","green","","",""
"-1","-1","poldrack-single-stim","209","380323","0.0-209.0","5e0d2800-e146-4490-8d64-bb4e8daeb129","","500","500","fixation","","<div class = centerbox><div class = fixation>+</div></div>","none","500","test","","","","","","","","",""
"535","66","poldrack-categorize","210","382836","0.0-210.0","5e0d2800-e146-4490-8d64-bb4e8daeb129","","1500","250","stim","","<div class = centerbox><div class = stroop-stim style = ""color:blue"">BLUE</div></div>","66,71,82","1500","test","true","66","500","congruent","blue","blue","","",""
"-1","-1","poldrack-single-stim","211","383597","0.0-211.0","5e0d2800-e146-4490-8d64-bb4e8daeb129","","500","500","fixation","","<div class = centerbox><div class = fixation>+</div></div>","none","500","test","","","","","","","","",""
"837","66","poldrack-categorize","212","386110","0.0-212.0","5e0d2800-e146-4490-8d64-bb4e8daeb129","","1500","250","stim","","<div class = centerbox><div class = stroop-stim style = ""color:blue"">GREEN</div></div>","66,71,82","1500","test","true","66","500","incongruent","blue","green","","",""
"-1","-1","poldrack-single-stim","213","386871","0.0-213.0","5e0d2800-e146-4490-8d64-bb4e8daeb129","","500","500","fixation","","<div class = centerbox><div class = fixation>+</div></div>","none","500","test","","","","","","","","",""
"715","66","poldrack-categorize","214","389384","0.0-214.0","5e0d2800-e146-4490-8d64-bb4e8daeb129","","1500","250","stim","","<div class = centerbox><div class = stroop-stim style = ""color:blue"">RED</div></div>","66,71,82","1500","test","true","66","500","incongruent","blue","red","","",""
"-1","-1","poldrack-single-stim","215","390144","0.0-215.0","5e0d2800-e146-4490-8d64-bb4e8daeb129","","500","500","fixation","","<div class = centerbox><div class = fixation>+</div></div>","none","500","test","","","","","","","","",""
"610","66","poldrack-categorize","216","392657","0.0-216.0","5e0d2800-e146-4490-8d64-bb4e8daeb129","","1500","250","stim","","<div class = centerbox><div class = stroop-stim style = ""color:blue"">BLUE</div></div>","66,71,82","1500","test","true","66","500","congruent","blue","blue","","",""
"-1","-1","poldrack-single-stim","217","393418","0.0-217.0","5e0d2800-e146-4490-8d64-bb4e8daeb129","","500","500","fixation","","<div class = centerbox><div class = fixation>+</div></div>","none","500","test","","","","","","","","",""
"768","71","poldrack-categorize","218","395925","0.0-218.0","5e0d2800-e146-4490-8d64-bb4e8daeb129","","1500","250","stim","","<div class = centerbox><div class = stroop-stim style = ""color:green"">GREEN</div></div>","66,71,82","1500","test","true","71","500","congruent","green","green","","",""
"-1","-1","poldrack-single-stim","219","396687","0.0-219.0","5e0d2800-e146-4490-8d64-bb4e8daeb129","","500","500","fixation","","<div class = centerbox><div class = fixation>+</div></div>","none","500","test","","","","","","","","",""
"605","82","poldrack-categorize","220","399194","0.0-220.0","5e0d2800-e146-4490-8d64-bb4e8daeb129","","1500","250","stim","","<div class = centerbox><div class = stroop-stim style = ""color:red"">RED</div></div>","66,71,82","1500","test","true","82","500","congruent","red","red","","",""
"-1","-1","poldrack-single-stim","221","399954","0.0-221.0","5e0d2800-e146-4490-8d64-bb4e8daeb129","","500","500","fixation","","<div class = centerbox><div class = fixation>+</div></div>","none","500","test","","","","","","","","",""
"688","82","poldrack-categorize","222","402467","0.0-222.0","5e0d2800-e146-4490-8d64-bb4e8daeb129","","1500","250","stim","","<div class = centerbox><div class = stroop-stim style = ""color:red"">RED</div></div>","66,71,82","1500","test","true","82","500","congruent","red","red","","",""
"-1","-1","poldrack-single-stim","223","403222","0.0-223.0","5e0d2800-e146-4490-8d64-bb4e8daeb129","","500","500","fixation","","<div class = centerbox><div class = fixation>+</div></div>","none","500","test","","","","","","","","",""
"738","82","poldrack-categorize","224","405735","0.0-224.0","5e0d2800-e146-4490-8d64-bb4e8daeb129","","1500","250","stim","","<div class = centerbox><div class = stroop-stim style = ""color:red"">RED</div></div>","66,71,82","1500","test","true","82","500","congruent","red","red","","",""
"-1","-1","poldrack-single-stim","225","406496","0.0-225.0","5e0d2800-e146-4490-8d64-bb4e8daeb129","","500","500","fixation","","<div class = centerbox><div class = fixation>+</div></div>","none","500","test","","","","","","","","",""
"849","82","poldrack-categorize","226","409009","0.0-226.0","5e0d2800-e146-4490-8d64-bb4e8daeb129","","1500","250","stim","","<div class = centerbox><div class = stroop-stim style = ""color:red"">GREEN</div></div>","66,71,82","1500","test","true","82","500","incongruent","red","green","","",""
"-1","-1","poldrack-single-stim","227","409770","0.0-227.0","5e0d2800-e146-4490-8d64-bb4e8daeb129","","500","500","fixation","","<div class = centerbox><div class = fixation>+</div></div>","none","500","test","","","","","","","","",""
"799","82","poldrack-categorize","228","412283","0.0-228.0","5e0d2800-e146-4490-8d64-bb4e8daeb129","","1500","250","stim","","<div class = centerbox><div class = stroop-stim style = ""color:red"">BLUE</div></div>","66,71,82","1500","test","true","82","500","incongruent","red","blue","","",""
"-1","-1","poldrack-single-stim","229","413044","0.0-229.0","5e0d2800-e146-4490-8d64-bb4e8daeb129","","500","500","fixation","","<div class = centerbox><div class = fixation>+</div></div>","none","500","test","","","","","","","","",""
"1038","71","poldrack-categorize","230","415557","0.0-230.0","5e0d2800-e146-4490-8d64-bb4e8daeb129","","1500","250","stim","","<div class = centerbox><div class = stroop-stim style = ""color:green"">RED</div></div>","66,71,82","1500","test","true","71","500","incongruent","green","red","","",""
"-1","-1","poldrack-single-stim","231","416317","0.0-231.0","5e0d2800-e146-4490-8d64-bb4e8daeb129","","500","500","fixation","","<div class = centerbox><div class = fixation>+</div></div>","none","500","test","","","","","","","","",""
"531","71","poldrack-categorize","232","418831","0.0-232.0","5e0d2800-e146-4490-8d64-bb4e8daeb129","","1500","250","stim","","<div class = centerbox><div class = stroop-stim style = ""color:green"">BLUE</div></div>","66,71,82","1500","test","true","71","500","incongruent","green","blue","","",""
"-1","-1","poldrack-single-stim","233","419591","0.0-233.0","5e0d2800-e146-4490-8d64-bb4e8daeb129","","500","500","fixation","","<div class = centerbox><div class = fixation>+</div></div>","none","500","test","","","","","","","","",""
"968","71","poldrack-categorize","234","422104","0.0-234.0","5e0d2800-e146-4490-8d64-bb4e8daeb129","","1500","250","stim","","<div class = centerbox><div class = stroop-stim style = ""color:green"">GREEN</div></div>","66,71,82","1500","test","true","71","500","congruent","green","green","","",""
"-1","-1","poldrack-single-stim","235","422865","0.0-235.0","5e0d2800-e146-4490-8d64-bb4e8daeb129","","500","500","fixation","","<div class = centerbox><div class = fixation>+</div></div>","none","500","test","","","","","","","","",""
"1247","71","poldrack-categorize","236","425376","0.0-236.0","5e0d2800-e146-4490-8d64-bb4e8daeb129","","1500","250","stim","","<div class = centerbox><div class = stroop-stim style = ""color:green"">BLUE</div></div>","66,71,82","1500","test","true","71","500","incongruent","green","blue","","",""
"-1","-1","poldrack-single-stim","237","426133","0.0-237.0","5e0d2800-e146-4490-8d64-bb4e8daeb129","","500","500","fixation","","<div class = centerbox><div class = fixation>+</div></div>","none","500","test","","","","","","","","",""
"921","66","poldrack-categorize","238","428646","0.0-238.0","5e0d2800-e146-4490-8d64-bb4e8daeb129","","1500","250","stim","","<div class = centerbox><div class = stroop-stim style = ""color:blue"">RED</div></div>","66,71,82","1500","test","true","66","500","incongruent","blue","red","","",""
"-1","-1","poldrack-single-stim","239","429405","0.0-239.0","5e0d2800-e146-4490-8d64-bb4e8daeb129","","500","500","fixation","","<div class = centerbox><div class = fixation>+</div></div>","none","500","test","","","","","","","","",""
"889","71","poldrack-categorize","240","431920","0.0-240.0","5e0d2800-e146-4490-8d64-bb4e8daeb129","","1500","250","stim","","<div class = centerbox><div class = stroop-stim style = ""color:green"">RED</div></div>","66,71,82","1500","test","true","71","500","incongruent","green","red","","",""
"-1","-1","poldrack-single-stim","241","432681","0.0-241.0","5e0d2800-e146-4490-8d64-bb4e8daeb129","","500","500","fixation","","<div class = centerbox><div class = fixation>+</div></div>","none","500","test","","","","","","","","",""
"599","71","poldrack-categorize","242","435194","0.0-242.0","5e0d2800-e146-4490-8d64-bb4e8daeb129","","1500","250","stim","","<div class = centerbox><div class = stroop-stim style = ""color:green"">GREEN</div></div>","66,71,82","1500","test","true","71","500","congruent","green","green","","",""
"-1","-1","poldrack-single-stim","243","435954","0.0-243.0","5e0d2800-e146-4490-8d64-bb4e8daeb129","","500","500","fixation","","<div class = centerbox><div class = fixation>+</div></div>","none","500","test","","","","","","","","",""
"830","82","poldrack-categorize","244","438468","0.0-244.0","5e0d2800-e146-4490-8d64-bb4e8daeb129","","1500","250","stim","","<div class = centerbox><div class = stroop-stim style = ""color:red"">RED</div></div>","66,71,82","1500","test","true","82","500","congruent","red","red","","",""
"112518","","survey-text","245","551254","0.0-246.0","5e0d2800-e146-4490-8d64-bb4e8daeb129","","","","post task questions","","","","","","","","","","","","{""Q0"":""i was asked to distinguish the color of the ink of the 3 words given. the 3 words given were red, blue, and green. i was to pick r if the color of the ink was red, pick g if the color of the ink was green and pick b if the color of the ink was blue."",""Q1"":""""}","",""
"-1","-1","poldrack-text","246","732245","0.0-247.0","5e0d2800-e146-4490-8d64-bb4e8daeb129","<div class = centerbox><p class = center-block-text>Thanks for completing this task!</p><p class = center-block-text>Press <strong>enter</strong> to continue.</p></div>","180000","0","end","","","","","","","","","","","","","stroop","true"
"224327","13","text","247","956607","0.0-248.0","5e0d2800-e146-4490-8d64-bb4e8daeb129","","","","","","","","","","","","","","","","","",""
