"rt","key_press","trial_type","trial_index","time_elapsed","internal_node_id","subject","text","block_duration","timing_post_trial","trial_id","view_history","stimulus","possible_responses","stim_duration","exp_stage","correct","correct_response","feedback_duration","condition","stim_color","stim_word","responses","exp_id","credit_var"
"3307","13","text","0","3309","0.0-0.0","f000e03e-9d6a-4a40-a853-8d27815b1b95","","","","","","","","","","","","","","","","","",""
"2447","13","poldrack-text","1","6764","0.0-1.0-0.0","f000e03e-9d6a-4a40-a853-8d27815b1b95","<div class = centerbox><p class = center-block-text>Welcome to the experiment. This experiment will take about 8 minutes. Press <strong>enter</strong> to begin.</p></div>","2447","0","instruction","","","","","","","","","","","","","",""
"68893","","poldrack-instructions","2","75657","0.0-1.0-1.0","f000e03e-9d6a-4a40-a853-8d27815b1b95","","","","instruction","[{""page_index"":0,""viewing_time"":68892}]","","","","","","","","","","","","",""
"2404","13","poldrack-text","3","79063","0.0-2.0","f000e03e-9d6a-4a40-a853-8d27815b1b95","<div class = centerbox><p class = block-text>We will start with a few practice trials. Remember, press the key corresponding to the <strong>ink</strong> color of the word: ""r"" for words colored red, ""b"" for words colored blue, and ""g"" for words colored green.</p><p class = block-text>Press <strong>enter</strong> to begin practice.</p></div>","2404","1000","practice_intro","","","","","","","","","","","","","",""
"-1","-1","poldrack-single-stim","4","80572","0.0-3.0","f000e03e-9d6a-4a40-a853-8d27815b1b95","","500","500","fixation","","<div class = centerbox><div class = fixation>+</div></div>","none","500","practice","","","","","","","","",""
"1188","66","poldrack-categorize","5","83080","0.0-4.0","f000e03e-9d6a-4a40-a853-8d27815b1b95","","1500","250","stim","","<div class = centerbox><div class = stroop-stim style = ""color:blue"">BLUE</div></div>","66,71,82","1500","practice","true","66","500","congruent","blue","blue","","",""
"-1","-1","poldrack-single-stim","6","83838","0.0-5.0","f000e03e-9d6a-4a40-a853-8d27815b1b95","","500","500","fixation","","<div class = centerbox><div class = fixation>+</div></div>","none","500","practice","","","","","","","","",""
"639","82","poldrack-categorize","7","86352","0.0-6.0","f000e03e-9d6a-4a40-a853-8d27815b1b95","","1500","250","stim","","<div class = centerbox><div class = stroop-stim style = ""color:red"">RED</div></div>","66,71,82","1500","practice","true","82","500","congruent","red","red","","",""
"-1","-1","poldrack-single-stim","8","87112","0.0-7.0","f000e03e-9d6a-4a40-a853-8d27815b1b95","","500","500","fixation","","<div class = centerbox><div class = fixation>+</div></div>","none","500","practice","","","","","","","","",""
"438","66","poldrack-categorize","9","89626","0.0-8.0","f000e03e-9d6a-4a40-a853-8d27815b1b95","","1500","250","stim","","<div class = centerbox><div class = stroop-stim style = ""color:blue"">BLUE</div></div>","66,71,82","1500","practice","true","66","500","congruent","blue","blue","","",""
"-1","-1","poldrack-single-stim","10","90386","0.0-9.0","f000e03e-9d6a-4a40-a853-8d27815b1b95","","500","500","fixation","","<div class = centerbox><div class = fixation>+</div></div>","none","500","practice","","","","","","","","",""
"458","82","poldrack-categorize","11","92901","0.0-10.0","f000e03e-9d6a-4a40-a853-8d27815b1b95","","1500","250","stim","","<div class = centerbox><div class = stroop-stim style = ""color:red"">RED</div></div>","66,71,82","1500","practice","true","82","500","congruent","red","red","","",""
"-1","-1","poldrack-single-stim","12","93660","0.0-11.0","f000e03e-9d6a-4a40-a853-8d27815b1b95","","500","500","fixation","","<div class = centerbox><div class = fixation>+</div></div>","none","500","practice","","","","","","","","",""
"1040","82","poldrack-categorize","13","96173","0.0-12.0","f000e03e-9d6a-4a40-a853-8d27815b1b95","","1500","250","stim","","<div class = centerbox><div class = stroop-stim style = ""color:red"">GREEN</div></div>","66,71,82","1500","practice","true","82","500","incongruent","red","green","","",""
"-1","-1","poldrack-single-stim","14","96934","0.0-13.0","f000e03e-9d6a-4a40-a853-8d27815b1b95","","500","500","fixation","","<div class = centerbox><div class = fixation>+</div></div>","none","500","practice","","","","","","","","",""
"559","71","poldrack-categorize","15","99447","0.0-14.0","f000e03e-9d6a-4a40-a853-8d27815b1b95","","1500","250","stim","","<div class = centerbox><div class = stroop-stim style = ""color:green"">GREEN</div></div>","66,71,82","1500","practice","true","71","500","congruent","green","green","","",""
"-1","-1","poldrack-single-stim","16","100207","0.0-15.0","f000e03e-9d6a-4a40-a853-8d27815b1b95","","500","500","fixation","","<div class = centerbox><div class = fixation>+</div></div>","none","500","practice","","","","","","","","",""
"573","71","poldrack-categorize","17","102721","0.0-16.0","f000e03e-9d6a-4a40-a853-8d27815b1b95","","1500","250","stim","","<div class = centerbox><div class = stroop-stim style = ""color:green"">BLUE</div></div>","66,71,82","1500","practice","true","71","500","incongruent","green","blue","","",""
"-1","-1","poldrack-single-stim","18","103481","0.0-17.0","f000e03e-9d6a-4a40-a853-8d27815b1b95","","500","500","fixation","","<div class = centerbox><div class = fixation>+</div></div>","none","500","practice","","","","","","","","",""
"1317","66","poldrack-categorize","19","105994","0.0-18.0","f000e03e-9d6a-4a40-a853-8d27815b1b95","","1500","250","stim","","<div class = centerbox><div class = stroop-stim style = ""color:blue"">BLUE</div></div>","66,71,82","1500","practice","true","66","500","congruent","blue","blue","","",""
"-1","-1","poldrack-single-stim","20","106755","0.0-19.0","f000e03e-9d6a-4a40-a853-8d27815b1b95","","500","500","fixation","","<div class = centerbox><div class = fixation>+</div></div>","none","500","practice","","","","","","","","",""
"505","66","poldrack-categorize","21","109268","0.0-20.0","f000e03e-9d6a-4a40-a853-8d27815b1b95","","1500","250","stim","","<div class = centerbox><div class = stroop-stim style = ""color:blue"">GREEN</div></div>","66,71,82","1500","practice","true","66","500","incongruent","blue","green","","",""
"-1","-1","poldrack-single-stim","22","110023","0.0-21.0","f000e03e-9d6a-4a40-a853-8d27815b1b95","","500","500","fixation","","<div class = centerbox><div class = fixation>+</div></div>","none","500","practice","","","","","","","","",""
"781","71","poldrack-categorize","23","112536","0.0-22.0","f000e03e-9d6a-4a40-a853-8d27815b1b95","","1500","250","stim","","<div class = centerbox><div class = stroop-stim style = ""color:green"">GREEN</div></div>","66,71,82","1500","practice","true","71","500","congruent","green","green","","",""
"-1","-1","poldrack-single-stim","24","113297","0.0-23.0","f000e03e-9d6a-4a40-a853-8d27815b1b95","","500","500","fixation","","<div class = centerbox><div class = fixation>+</div></div>","none","500","practice","","","","","","","","",""
"506","82","poldrack-categorize","25","115810","0.0-24.0","f000e03e-9d6a-4a40-a853-8d27815b1b95","","1500","250","stim","","<div class = centerbox><div class = stroop-stim style = ""color:red"">RED</div></div>","66,71,82","1500","practice","true","82","500","congruent","red","red","","",""
"-1","-1","poldrack-single-stim","26","116571","0.0-25.0","f000e03e-9d6a-4a40-a853-8d27815b1b95","","500","500","fixation","","<div class = centerbox><div class = fixation>+</div></div>","none","500","practice","","","","","","","","",""
"521","66","poldrack-categorize","27","119084","0.0-26.0","f000e03e-9d6a-4a40-a853-8d27815b1b95","","1500","250","stim","","<div class = centerbox><div class = stroop-stim style = ""color:blue"">BLUE</div></div>","66,71,82","1500","practice","true","66","500","congruent","blue","blue","","",""
"-1","-1","poldrack-single-stim","28","119839","0.0-27.0","f000e03e-9d6a-4a40-a853-8d27815b1b95","","500","500","fixation","","<div class = centerbox><div class = fixation>+</div></div>","none","500","practice","","","","","","","","",""
"685","66","poldrack-categorize","29","122352","0.0-28.0","f000e03e-9d6a-4a40-a853-8d27815b1b95","","1500","250","stim","","<div class = centerbox><div class = stroop-stim style = ""color:blue"">GREEN</div></div>","66,71,82","1500","practice","true","66","500","incongruent","blue","green","","",""
"-1","-1","poldrack-single-stim","30","123113","0.0-29.0","f000e03e-9d6a-4a40-a853-8d27815b1b95","","500","500","fixation","","<div class = centerbox><div class = fixation>+</div></div>","none","500","practice","","","","","","","","",""
"587","82","poldrack-categorize","31","125626","0.0-30.0","f000e03e-9d6a-4a40-a853-8d27815b1b95","","1500","250","stim","","<div class = centerbox><div class = stroop-stim style = ""color:red"">BLUE</div></div>","66,71,82","1500","practice","true","82","500","incongruent","red","blue","","",""
"-1","-1","poldrack-single-stim","32","126386","0.0-31.0","f000e03e-9d6a-4a40-a853-8d27815b1b95","","500","500","fixation","","<div class = centerbox><div class = fixation>+</div></div>","none","500","practice","","","","","","","","",""
"1304","71","poldrack-categorize","33","128900","0.0-32.0","f000e03e-9d6a-4a40-a853-8d27815b1b95","","1500","250","stim","","<div class = centerbox><div class = stroop-stim style = ""color:green"">GREEN</div></div>","66,71,82","1500","practice","true","71","500","congruent","green","green","","",""
"-1","-1","poldrack-single-stim","34","129660","0.0-33.0","f000e03e-9d6a-4a40-a853-8d27815b1b95","","500","500","fixation","","<div class = centerbox><div class = fixation>+</div></div>","none","500","practice","","","","","","","","",""
"558","71","poldrack-categorize","35","132173","0.0-34.0","f000e03e-9d6a-4a40-a853-8d27815b1b95","","1500","250","stim","","<div class = centerbox><div class = stroop-stim style = ""color:green"">RED</div></div>","66,71,82","1500","practice","true","71","500","incongruent","green","red","","",""
"-1","-1","poldrack-single-stim","36","132932","0.0-35.0","f000e03e-9d6a-4a40-a853-8d27815b1b95","","500","500","fixation","","<div class = centerbox><div class = fixation>+</div></div>","none","500","practice","","","","","","","","",""
"858","82","poldrack-categorize","37","135441","0.0-36.0","f000e03e-9d6a-4a40-a853-8d27815b1b95","","1500","250","stim","","<div class = centerbox><div class = stroop-stim style = ""color:blue"">RED</div></div>","66,71,82","1500","practice","false","66","500","incongruent","blue","red","","",""
"-1","-1","poldrack-single-stim","38","136202","0.0-37.0","f000e03e-9d6a-4a40-a853-8d27815b1b95","","500","500","fixation","","<div class = centerbox><div class = fixation>+</div></div>","none","500","practice","","","","","","","","",""
"800","82","poldrack-categorize","39","138709","0.0-38.0","f000e03e-9d6a-4a40-a853-8d27815b1b95","","1500","250","stim","","<div class = centerbox><div class = stroop-stim style = ""color:red"">GREEN</div></div>","66,71,82","1500","practice","true","82","500","incongruent","red","green","","",""
"-1","-1","poldrack-single-stim","40","139470","0.0-39.0","f000e03e-9d6a-4a40-a853-8d27815b1b95","","500","500","fixation","","<div class = centerbox><div class = fixation>+</div></div>","none","500","practice","","","","","","","","",""
"635","82","poldrack-categorize","41","141983","0.0-40.0","f000e03e-9d6a-4a40-a853-8d27815b1b95","","1500","250","stim","","<div class = centerbox><div class = stroop-stim style = ""color:red"">BLUE</div></div>","66,71,82","1500","practice","true","82","500","incongruent","red","blue","","",""
"-1","-1","poldrack-single-stim","42","142744","0.0-41.0","f000e03e-9d6a-4a40-a853-8d27815b1b95","","500","500","fixation","","<div class = centerbox><div class = fixation>+</div></div>","none","500","practice","","","","","","","","",""
"1146","71","poldrack-categorize","43","145257","0.0-42.0","f000e03e-9d6a-4a40-a853-8d27815b1b95","","1500","250","stim","","<div class = centerbox><div class = stroop-stim style = ""color:green"">RED</div></div>","66,71,82","1500","practice","true","71","500","incongruent","green","red","","",""
"-1","-1","poldrack-single-stim","44","146017","0.0-43.0","f000e03e-9d6a-4a40-a853-8d27815b1b95","","500","500","fixation","","<div class = centerbox><div class = fixation>+</div></div>","none","500","practice","","","","","","","","",""
"503","71","poldrack-categorize","45","148531","0.0-44.0","f000e03e-9d6a-4a40-a853-8d27815b1b95","","1500","250","stim","","<div class = centerbox><div class = stroop-stim style = ""color:green"">BLUE</div></div>","66,71,82","1500","practice","true","71","500","incongruent","green","blue","","",""
"-1","-1","poldrack-single-stim","46","149291","0.0-45.0","f000e03e-9d6a-4a40-a853-8d27815b1b95","","500","500","fixation","","<div class = centerbox><div class = fixation>+</div></div>","none","500","practice","","","","","","","","",""
"558","71","poldrack-categorize","47","151805","0.0-46.0","f000e03e-9d6a-4a40-a853-8d27815b1b95","","1500","250","stim","","<div class = centerbox><div class = stroop-stim style = ""color:green"">GREEN</div></div>","66,71,82","1500","practice","true","71","500","congruent","green","green","","",""
"-1","-1","poldrack-single-stim","48","152565","0.0-47.0","f000e03e-9d6a-4a40-a853-8d27815b1b95","","500","500","fixation","","<div class = centerbox><div class = fixation>+</div></div>","none","500","practice","","","","","","","","",""
"668","82","poldrack-categorize","49","155078","0.0-48.0","f000e03e-9d6a-4a40-a853-8d27815b1b95","","1500","250","stim","","<div class = centerbox><div class = stroop-stim style = ""color:red"">RED</div></div>","66,71,82","1500","practice","true","82","500","congruent","red","red","","",""
"-1","-1","poldrack-single-stim","50","155833","0.0-49.0","f000e03e-9d6a-4a40-a853-8d27815b1b95","","500","500","fixation","","<div class = centerbox><div class = fixation>+</div></div>","none","500","practice","","","","","","","","",""
"512","66","poldrack-categorize","51","158346","0.0-50.0","f000e03e-9d6a-4a40-a853-8d27815b1b95","","1500","250","stim","","<div class = centerbox><div class = stroop-stim style = ""color:blue"">RED</div></div>","66,71,82","1500","practice","true","66","500","incongruent","blue","red","","",""
"2567","13","poldrack-text","52","161169","0.0-52.0","f000e03e-9d6a-4a40-a853-8d27815b1b95","<div class = centerbox><p class = center-block-text>We will now start the test. Respond exactly like you did during practice.</p><p class = center-block-text>Press <strong>enter</strong> to begin the test.</p></div>","2567","1000","test_intro","","","","","","","","","","","","","",""
"-1","-1","poldrack-single-stim","53","162671","0.0-53.0","f000e03e-9d6a-4a40-a853-8d27815b1b95","","500","500","fixation","","<div class = centerbox><div class = fixation>+</div></div>","none","500","test","","","","","","","","",""
"-1","-1","poldrack-categorize","54","165184","0.0-54.0","f000e03e-9d6a-4a40-a853-8d27815b1b95","","1500","250","stim","","<div class = centerbox><div class = stroop-stim style = ""color:blue"">GREEN</div></div>","66,71,82","1500","test","false","66","500","incongruent","blue","green","","",""
"-1","-1","poldrack-single-stim","55","165945","0.0-55.0","f000e03e-9d6a-4a40-a853-8d27815b1b95","","500","500","fixation","","<div class = centerbox><div class = fixation>+</div></div>","none","500","test","","","","","","","","",""
"554","71","poldrack-categorize","56","168458","0.0-56.0","f000e03e-9d6a-4a40-a853-8d27815b1b95","","1500","250","stim","","<div class = centerbox><div class = stroop-stim style = ""color:green"">RED</div></div>","66,71,82","1500","test","true","71","500","incongruent","green","red","","",""
"-1","-1","poldrack-single-stim","57","169218","0.0-57.0","f000e03e-9d6a-4a40-a853-8d27815b1b95","","500","500","fixation","","<div class = centerbox><div class = fixation>+</div></div>","none","500","test","","","","","","","","",""
"433","82","poldrack-categorize","58","171723","0.0-58.0","f000e03e-9d6a-4a40-a853-8d27815b1b95","","1500","250","stim","","<div class = centerbox><div class = stroop-stim style = ""color:red"">GREEN</div></div>","66,71,82","1500","test","true","82","500","incongruent","red","green","","",""
"-1","-1","poldrack-single-stim","59","172481","0.0-59.0","f000e03e-9d6a-4a40-a853-8d27815b1b95","","500","500","fixation","","<div class = centerbox><div class = fixation>+</div></div>","none","500","test","","","","","","","","",""
"678","66","poldrack-categorize","60","174994","0.0-60.0","f000e03e-9d6a-4a40-a853-8d27815b1b95","","1500","250","stim","","<div class = centerbox><div class = stroop-stim style = ""color:blue"">GREEN</div></div>","66,71,82","1500","test","true","66","500","incongruent","blue","green","","",""
"-1","-1","poldrack-single-stim","61","175755","0.0-61.0","f000e03e-9d6a-4a40-a853-8d27815b1b95","","500","500","fixation","","<div class = centerbox><div class = fixation>+</div></div>","none","500","test","","","","","","","","",""
"670","66","poldrack-categorize","62","178268","0.0-62.0","f000e03e-9d6a-4a40-a853-8d27815b1b95","","1500","250","stim","","<div class = centerbox><div class = stroop-stim style = ""color:blue"">GREEN</div></div>","66,71,82","1500","test","true","66","500","incongruent","blue","green","","",""
"-1","-1","poldrack-single-stim","63","179028","0.0-63.0","f000e03e-9d6a-4a40-a853-8d27815b1b95","","500","500","fixation","","<div class = centerbox><div class = fixation>+</div></div>","none","500","test","","","","","","","","",""
"763","71","poldrack-categorize","64","181542","0.0-64.0","f000e03e-9d6a-4a40-a853-8d27815b1b95","","1500","250","stim","","<div class = centerbox><div class = stroop-stim style = ""color:green"">GREEN</div></div>","66,71,82","1500","test","true","71","500","congruent","green","green","","",""
"-1","-1","poldrack-single-stim","65","182302","0.0-65.0","f000e03e-9d6a-4a40-a853-8d27815b1b95","","500","500","fixation","","<div class = centerbox><div class = fixation>+</div></div>","none","500","test","","","","","","","","",""
"603","66","poldrack-categorize","66","184815","0.0-66.0","f000e03e-9d6a-4a40-a853-8d27815b1b95","","1500","250","stim","","<div class = centerbox><div class = stroop-stim style = ""color:blue"">BLUE</div></div>","66,71,82","1500","test","true","66","500","congruent","blue","blue","","",""
"-1","-1","poldrack-single-stim","67","185576","0.0-67.0","f000e03e-9d6a-4a40-a853-8d27815b1b95","","500","500","fixation","","<div class = centerbox><div class = fixation>+</div></div>","none","500","test","","","","","","","","",""
"384","66","poldrack-categorize","68","188089","0.0-68.0","f000e03e-9d6a-4a40-a853-8d27815b1b95","","1500","250","stim","","<div class = centerbox><div class = stroop-stim style = ""color:blue"">BLUE</div></div>","66,71,82","1500","test","true","66","500","congruent","blue","blue","","",""
"-1","-1","poldrack-single-stim","69","188850","0.0-69.0","f000e03e-9d6a-4a40-a853-8d27815b1b95","","500","500","fixation","","<div class = centerbox><div class = fixation>+</div></div>","none","500","test","","","","","","","","",""
"693","71","poldrack-categorize","70","191363","0.0-70.0","f000e03e-9d6a-4a40-a853-8d27815b1b95","","1500","250","stim","","<div class = centerbox><div class = stroop-stim style = ""color:green"">GREEN</div></div>","66,71,82","1500","test","true","71","500","congruent","green","green","","",""
"-1","-1","poldrack-single-stim","71","192124","0.0-71.0","f000e03e-9d6a-4a40-a853-8d27815b1b95","","500","500","fixation","","<div class = centerbox><div class = fixation>+</div></div>","none","500","test","","","","","","","","",""
"420","82","poldrack-categorize","72","194637","0.0-72.0","f000e03e-9d6a-4a40-a853-8d27815b1b95","","1500","250","stim","","<div class = centerbox><div class = stroop-stim style = ""color:red"">RED</div></div>","66,71,82","1500","test","true","82","500","congruent","red","red","","",""
"-1","-1","poldrack-single-stim","73","195394","0.0-73.0","f000e03e-9d6a-4a40-a853-8d27815b1b95","","500","500","fixation","","<div class = centerbox><div class = fixation>+</div></div>","none","500","test","","","","","","","","",""
"551","82","poldrack-categorize","74","197905","0.0-74.0","f000e03e-9d6a-4a40-a853-8d27815b1b95","","1500","250","stim","","<div class = centerbox><div class = stroop-stim style = ""color:red"">GREEN</div></div>","66,71,82","1500","test","true","82","500","incongruent","red","green","","",""
"-1","-1","poldrack-single-stim","75","198665","0.0-75.0","f000e03e-9d6a-4a40-a853-8d27815b1b95","","500","500","fixation","","<div class = centerbox><div class = fixation>+</div></div>","none","500","test","","","","","","","","",""
"838","71","poldrack-categorize","76","201173","0.0-76.0","f000e03e-9d6a-4a40-a853-8d27815b1b95","","1500","250","stim","","<div class = centerbox><div class = stroop-stim style = ""color:green"">BLUE</div></div>","66,71,82","1500","test","true","71","500","incongruent","green","blue","","",""
"-1","-1","poldrack-single-stim","77","201933","0.0-77.0","f000e03e-9d6a-4a40-a853-8d27815b1b95","","500","500","fixation","","<div class = centerbox><div class = fixation>+</div></div>","none","500","test","","","","","","","","",""
"809","66","poldrack-categorize","78","204447","0.0-78.0","f000e03e-9d6a-4a40-a853-8d27815b1b95","","1500","250","stim","","<div class = centerbox><div class = stroop-stim style = ""color:blue"">BLUE</div></div>","66,71,82","1500","test","true","66","500","congruent","blue","blue","","",""
"-1","-1","poldrack-single-stim","79","205204","0.0-79.0","f000e03e-9d6a-4a40-a853-8d27815b1b95","","500","500","fixation","","<div class = centerbox><div class = fixation>+</div></div>","none","500","test","","","","","","","","",""
"453","66","poldrack-categorize","80","207715","0.0-80.0","f000e03e-9d6a-4a40-a853-8d27815b1b95","","1500","250","stim","","<div class = centerbox><div class = stroop-stim style = ""color:blue"">BLUE</div></div>","66,71,82","1500","test","true","66","500","congruent","blue","blue","","",""
"-1","-1","poldrack-single-stim","81","208475","0.0-81.0","f000e03e-9d6a-4a40-a853-8d27815b1b95","","500","500","fixation","","<div class = centerbox><div class = fixation>+</div></div>","none","500","test","","","","","","","","",""
"412","71","poldrack-categorize","82","210988","0.0-82.0","f000e03e-9d6a-4a40-a853-8d27815b1b95","","1500","250","stim","","<div class = centerbox><div class = stroop-stim style = ""color:green"">GREEN</div></div>","66,71,82","1500","test","true","71","500","congruent","green","green","","",""
"-1","-1","poldrack-single-stim","83","211749","0.0-83.0","f000e03e-9d6a-4a40-a853-8d27815b1b95","","500","500","fixation","","<div class = centerbox><div class = fixation>+</div></div>","none","500","test","","","","","","","","",""
"410","71","poldrack-categorize","84","214262","0.0-84.0","f000e03e-9d6a-4a40-a853-8d27815b1b95","","1500","250","stim","","<div class = centerbox><div class = stroop-stim style = ""color:green"">BLUE</div></div>","66,71,82","1500","test","true","71","500","incongruent","green","blue","","",""
"-1","-1","poldrack-single-stim","85","215021","0.0-85.0","f000e03e-9d6a-4a40-a853-8d27815b1b95","","500","500","fixation","","<div class = centerbox><div class = fixation>+</div></div>","none","500","test","","","","","","","","",""
"528","66","poldrack-categorize","86","217536","0.0-86.0","f000e03e-9d6a-4a40-a853-8d27815b1b95","","1500","250","stim","","<div class = centerbox><div class = stroop-stim style = ""color:blue"">RED</div></div>","66,71,82","1500","test","true","66","500","incongruent","blue","red","","",""
"-1","-1","poldrack-single-stim","87","218297","0.0-87.0","f000e03e-9d6a-4a40-a853-8d27815b1b95","","500","500","fixation","","<div class = centerbox><div class = fixation>+</div></div>","none","500","test","","","","","","","","",""
"645","71","poldrack-categorize","88","220810","0.0-88.0","f000e03e-9d6a-4a40-a853-8d27815b1b95","","1500","250","stim","","<div class = centerbox><div class = stroop-stim style = ""color:red"">RED</div></div>","66,71,82","1500","test","false","82","500","congruent","red","red","","",""
"-1","-1","poldrack-single-stim","89","221571","0.0-89.0","f000e03e-9d6a-4a40-a853-8d27815b1b95","","500","500","fixation","","<div class = centerbox><div class = fixation>+</div></div>","none","500","test","","","","","","","","",""
"1043","71","poldrack-categorize","90","224084","0.0-90.0","f000e03e-9d6a-4a40-a853-8d27815b1b95","","1500","250","stim","","<div class = centerbox><div class = stroop-stim style = ""color:green"">BLUE</div></div>","66,71,82","1500","test","true","71","500","incongruent","green","blue","","",""
"-1","-1","poldrack-single-stim","91","224844","0.0-91.0","f000e03e-9d6a-4a40-a853-8d27815b1b95","","500","500","fixation","","<div class = centerbox><div class = fixation>+</div></div>","none","500","test","","","","","","","","",""
"602","82","poldrack-categorize","92","227358","0.0-92.0","f000e03e-9d6a-4a40-a853-8d27815b1b95","","1500","250","stim","","<div class = centerbox><div class = stroop-stim style = ""color:red"">BLUE</div></div>","66,71,82","1500","test","true","82","500","incongruent","red","blue","","",""
"-1","-1","poldrack-single-stim","93","228118","0.0-93.0","f000e03e-9d6a-4a40-a853-8d27815b1b95","","500","500","fixation","","<div class = centerbox><div class = fixation>+</div></div>","none","500","test","","","","","","","","",""
"528","82","poldrack-categorize","94","230632","0.0-94.0","f000e03e-9d6a-4a40-a853-8d27815b1b95","","1500","250","stim","","<div class = centerbox><div class = stroop-stim style = ""color:red"">RED</div></div>","66,71,82","1500","test","true","82","500","congruent","red","red","","",""
"-1","-1","poldrack-single-stim","95","231392","0.0-95.0","f000e03e-9d6a-4a40-a853-8d27815b1b95","","500","500","fixation","","<div class = centerbox><div class = fixation>+</div></div>","none","500","test","","","","","","","","",""
"773","71","poldrack-categorize","96","233905","0.0-96.0","f000e03e-9d6a-4a40-a853-8d27815b1b95","","1500","250","stim","","<div class = centerbox><div class = stroop-stim style = ""color:green"">RED</div></div>","66,71,82","1500","test","true","71","500","incongruent","green","red","","",""
"-1","-1","poldrack-single-stim","97","234666","0.0-97.0","f000e03e-9d6a-4a40-a853-8d27815b1b95","","500","500","fixation","","<div class = centerbox><div class = fixation>+</div></div>","none","500","test","","","","","","","","",""
"1299","82","poldrack-categorize","98","237173","0.0-98.0","f000e03e-9d6a-4a40-a853-8d27815b1b95","","1500","250","stim","","<div class = centerbox><div class = stroop-stim style = ""color:blue"">RED</div></div>","66,71,82","1500","test","false","66","500","incongruent","blue","red","","",""
"-1","-1","poldrack-single-stim","99","237934","0.0-99.0","f000e03e-9d6a-4a40-a853-8d27815b1b95","","500","500","fixation","","<div class = centerbox><div class = fixation>+</div></div>","none","500","test","","","","","","","","",""
"653","82","poldrack-categorize","100","240447","0.0-100.0","f000e03e-9d6a-4a40-a853-8d27815b1b95","","1500","250","stim","","<div class = centerbox><div class = stroop-stim style = ""color:red"">GREEN</div></div>","66,71,82","1500","test","true","82","500","incongruent","red","green","","",""
"-1","-1","poldrack-single-stim","101","241208","0.0-101.0","f000e03e-9d6a-4a40-a853-8d27815b1b95","","500","500","fixation","","<div class = centerbox><div class = fixation>+</div></div>","none","500","test","","","","","","","","",""
"694","82","poldrack-categorize","102","243722","0.0-102.0","f000e03e-9d6a-4a40-a853-8d27815b1b95","","1500","250","stim","","<div class = centerbox><div class = stroop-stim style = ""color:red"">RED</div></div>","66,71,82","1500","test","true","82","500","congruent","red","red","","",""
"-1","-1","poldrack-single-stim","103","244481","0.0-103.0","f000e03e-9d6a-4a40-a853-8d27815b1b95","","500","500","fixation","","<div class = centerbox><div class = fixation>+</div></div>","none","500","test","","","","","","","","",""
"755","71","poldrack-categorize","104","246994","0.0-104.0","f000e03e-9d6a-4a40-a853-8d27815b1b95","","1500","250","stim","","<div class = centerbox><div class = stroop-stim style = ""color:green"">GREEN</div></div>","66,71,82","1500","test","true","71","500","congruent","green","green","","",""
"-1","-1","poldrack-single-stim","105","247749","0.0-105.0","f000e03e-9d6a-4a40-a853-8d27815b1b95","","500","500","fixation","","<div class = centerbox><div class = fixation>+</div></div>","none","500","test","","","","","","","","",""
"461","71","poldrack-categorize","106","250263","0.0-106.0","f000e03e-9d6a-4a40-a853-8d27815b1b95","","1500","250","stim","","<div class = centerbox><div class = stroop-stim style = ""color:green"">RED</div></div>","66,71,82","1500","test","true","71","500","incongruent","green","red","","",""
"-1","-1","poldrack-single-stim","107","251023","0.0-107.0","f000e03e-9d6a-4a40-a853-8d27815b1b95","","500","500","fixation","","<div class = centerbox><div class = fixation>+</div></div>","none","500","test","","","","","","","","",""
"381","71","poldrack-categorize","108","253537","0.0-108.0","f000e03e-9d6a-4a40-a853-8d27815b1b95","","1500","250","stim","","<div class = centerbox><div class = stroop-stim style = ""color:green"">RED</div></div>","66,71,82","1500","test","true","71","500","incongruent","green","red","","",""
"-1","-1","poldrack-single-stim","109","254291","0.0-109.0","f000e03e-9d6a-4a40-a853-8d27815b1b95","","500","500","fixation","","<div class = centerbox><div class = fixation>+</div></div>","none","500","test","","","","","","","","",""
"543","82","poldrack-categorize","110","256804","0.0-110.0","f000e03e-9d6a-4a40-a853-8d27815b1b95","","1500","250","stim","","<div class = centerbox><div class = stroop-stim style = ""color:red"">BLUE</div></div>","66,71,82","1500","test","true","82","500","incongruent","red","blue","","",""
"-1","-1","poldrack-single-stim","111","257565","0.0-111.0","f000e03e-9d6a-4a40-a853-8d27815b1b95","","500","500","fixation","","<div class = centerbox><div class = fixation>+</div></div>","none","500","test","","","","","","","","",""
"959","66","poldrack-categorize","112","260078","0.0-112.0","f000e03e-9d6a-4a40-a853-8d27815b1b95","","1500","250","stim","","<div class = centerbox><div class = stroop-stim style = ""color:blue"">RED</div></div>","66,71,82","1500","test","true","66","500","incongruent","blue","red","","",""
"-1","-1","poldrack-single-stim","113","260839","0.0-113.0","f000e03e-9d6a-4a40-a853-8d27815b1b95","","500","500","fixation","","<div class = centerbox><div class = fixation>+</div></div>","none","500","test","","","","","","","","",""
"389","71","poldrack-categorize","114","263352","0.0-114.0","f000e03e-9d6a-4a40-a853-8d27815b1b95","","1500","250","stim","","<div class = centerbox><div class = stroop-stim style = ""color:green"">GREEN</div></div>","66,71,82","1500","test","true","71","500","congruent","green","green","","",""
"-1","-1","poldrack-single-stim","115","264113","0.0-115.0","f000e03e-9d6a-4a40-a853-8d27815b1b95","","500","500","fixation","","<div class = centerbox><div class = fixation>+</div></div>","none","500","test","","","","","","","","",""
"466","71","poldrack-categorize","116","266626","0.0-116.0","f000e03e-9d6a-4a40-a853-8d27815b1b95","","1500","250","stim","","<div class = centerbox><div class = stroop-stim style = ""color:green"">GREEN</div></div>","66,71,82","1500","test","true","71","500","congruent","green","green","","",""
"-1","-1","poldrack-single-stim","117","267383","0.0-117.0","f000e03e-9d6a-4a40-a853-8d27815b1b95","","500","500","fixation","","<div class = centerbox><div class = fixation>+</div></div>","none","500","test","","","","","","","","",""
"550","66","poldrack-categorize","118","269894","0.0-118.0","f000e03e-9d6a-4a40-a853-8d27815b1b95","","1500","250","stim","","<div class = centerbox><div class = stroop-stim style = ""color:blue"">BLUE</div></div>","66,71,82","1500","test","true","66","500","congruent","blue","blue","","",""
"-1","-1","poldrack-single-stim","119","270654","0.0-119.0","f000e03e-9d6a-4a40-a853-8d27815b1b95","","500","500","fixation","","<div class = centerbox><div class = fixation>+</div></div>","none","500","test","","","","","","","","",""
"517","82","poldrack-categorize","120","273167","0.0-120.0","f000e03e-9d6a-4a40-a853-8d27815b1b95","","1500","250","stim","","<div class = centerbox><div class = stroop-stim style = ""color:red"">RED</div></div>","66,71,82","1500","test","true","82","500","congruent","red","red","","",""
"-1","-1","poldrack-single-stim","121","273928","0.0-121.0","f000e03e-9d6a-4a40-a853-8d27815b1b95","","500","500","fixation","","<div class = centerbox><div class = fixation>+</div></div>","none","500","test","","","","","","","","",""
"555","71","poldrack-categorize","122","276441","0.0-122.0","f000e03e-9d6a-4a40-a853-8d27815b1b95","","1500","250","stim","","<div class = centerbox><div class = stroop-stim style = ""color:green"">RED</div></div>","66,71,82","1500","test","true","71","500","incongruent","green","red","","",""
"-1","-1","poldrack-single-stim","123","277202","0.0-123.0","f000e03e-9d6a-4a40-a853-8d27815b1b95","","500","500","fixation","","<div class = centerbox><div class = fixation>+</div></div>","none","500","test","","","","","","","","",""
"872","66","poldrack-categorize","124","279715","0.0-124.0","f000e03e-9d6a-4a40-a853-8d27815b1b95","","1500","250","stim","","<div class = centerbox><div class = stroop-stim style = ""color:blue"">BLUE</div></div>","66,71,82","1500","test","true","66","500","congruent","blue","blue","","",""
"-1","-1","poldrack-single-stim","125","280476","0.0-125.0","f000e03e-9d6a-4a40-a853-8d27815b1b95","","500","500","fixation","","<div class = centerbox><div class = fixation>+</div></div>","none","500","test","","","","","","","","",""
"614","66","poldrack-categorize","126","282989","0.0-126.0","f000e03e-9d6a-4a40-a853-8d27815b1b95","","1500","250","stim","","<div class = centerbox><div class = stroop-stim style = ""color:blue"">GREEN</div></div>","66,71,82","1500","test","true","66","500","incongruent","blue","green","","",""
"-1","-1","poldrack-single-stim","127","283746","0.0-127.0","f000e03e-9d6a-4a40-a853-8d27815b1b95","","500","500","fixation","","<div class = centerbox><div class = fixation>+</div></div>","none","500","test","","","","","","","","",""
"482","71","poldrack-categorize","128","286257","0.0-128.0","f000e03e-9d6a-4a40-a853-8d27815b1b95","","1500","250","stim","","<div class = centerbox><div class = stroop-stim style = ""color:green"">GREEN</div></div>","66,71,82","1500","test","true","71","500","congruent","green","green","","",""
"-1","-1","poldrack-single-stim","129","287017","0.0-129.0","f000e03e-9d6a-4a40-a853-8d27815b1b95","","500","500","fixation","","<div class = centerbox><div class = fixation>+</div></div>","none","500","test","","","","","","","","",""
"552","66","poldrack-categorize","130","289531","0.0-130.0","f000e03e-9d6a-4a40-a853-8d27815b1b95","","1500","250","stim","","<div class = centerbox><div class = stroop-stim style = ""color:blue"">BLUE</div></div>","66,71,82","1500","test","true","66","500","congruent","blue","blue","","",""
"-1","-1","poldrack-single-stim","131","290292","0.0-131.0","f000e03e-9d6a-4a40-a853-8d27815b1b95","","500","500","fixation","","<div class = centerbox><div class = fixation>+</div></div>","none","500","test","","","","","","","","",""
"517","66","poldrack-categorize","132","292805","0.0-132.0","f000e03e-9d6a-4a40-a853-8d27815b1b95","","1500","250","stim","","<div class = centerbox><div class = stroop-stim style = ""color:blue"">GREEN</div></div>","66,71,82","1500","test","true","66","500","incongruent","blue","green","","",""
"-1","-1","poldrack-single-stim","133","293565","0.0-133.0","f000e03e-9d6a-4a40-a853-8d27815b1b95","","500","500","fixation","","<div class = centerbox><div class = fixation>+</div></div>","none","500","test","","","","","","","","",""
"581","71","poldrack-categorize","134","296078","0.0-134.0","f000e03e-9d6a-4a40-a853-8d27815b1b95","","1500","250","stim","","<div class = centerbox><div class = stroop-stim style = ""color:green"">BLUE</div></div>","66,71,82","1500","test","true","71","500","incongruent","green","blue","","",""
"-1","-1","poldrack-single-stim","135","296839","0.0-135.0","f000e03e-9d6a-4a40-a853-8d27815b1b95","","500","500","fixation","","<div class = centerbox><div class = fixation>+</div></div>","none","500","test","","","","","","","","",""
"506","66","poldrack-categorize","136","299352","0.0-136.0","f000e03e-9d6a-4a40-a853-8d27815b1b95","","1500","250","stim","","<div class = centerbox><div class = stroop-stim style = ""color:blue"">BLUE</div></div>","66,71,82","1500","test","true","66","500","congruent","blue","blue","","",""
"-1","-1","poldrack-single-stim","137","300113","0.0-137.0","f000e03e-9d6a-4a40-a853-8d27815b1b95","","500","500","fixation","","<div class = centerbox><div class = fixation>+</div></div>","none","500","test","","","","","","","","",""
"536","82","poldrack-categorize","138","302626","0.0-138.0","f000e03e-9d6a-4a40-a853-8d27815b1b95","","1500","250","stim","","<div class = centerbox><div class = stroop-stim style = ""color:red"">GREEN</div></div>","66,71,82","1500","test","true","82","500","incongruent","red","green","","",""
"-1","-1","poldrack-single-stim","139","303382","0.0-139.0","f000e03e-9d6a-4a40-a853-8d27815b1b95","","500","500","fixation","","<div class = centerbox><div class = fixation>+</div></div>","none","500","test","","","","","","","","",""
"416","82","poldrack-categorize","140","305894","0.0-140.0","f000e03e-9d6a-4a40-a853-8d27815b1b95","","1500","250","stim","","<div class = centerbox><div class = stroop-stim style = ""color:red"">GREEN</div></div>","66,71,82","1500","test","true","82","500","incongruent","red","green","","",""
"-1","-1","poldrack-single-stim","141","306655","0.0-141.0","f000e03e-9d6a-4a40-a853-8d27815b1b95","","500","500","fixation","","<div class = centerbox><div class = fixation>+</div></div>","none","500","test","","","","","","","","",""
"642","66","poldrack-categorize","142","309168","0.0-142.0","f000e03e-9d6a-4a40-a853-8d27815b1b95","","1500","250","stim","","<div class = centerbox><div class = stroop-stim style = ""color:green"">GREEN</div></div>","66,71,82","1500","test","false","71","500","congruent","green","green","","",""
"-1","-1","poldrack-single-stim","143","309923","0.0-143.0","f000e03e-9d6a-4a40-a853-8d27815b1b95","","500","500","fixation","","<div class = centerbox><div class = fixation>+</div></div>","none","500","test","","","","","","","","",""
"620","71","poldrack-categorize","144","312436","0.0-144.0","f000e03e-9d6a-4a40-a853-8d27815b1b95","","1500","250","stim","","<div class = centerbox><div class = stroop-stim style = ""color:green"">RED</div></div>","66,71,82","1500","test","true","71","500","incongruent","green","red","","",""
"-1","-1","poldrack-single-stim","145","313197","0.0-145.0","f000e03e-9d6a-4a40-a853-8d27815b1b95","","500","500","fixation","","<div class = centerbox><div class = fixation>+</div></div>","none","500","test","","","","","","","","",""
"452","71","poldrack-categorize","146","315710","0.0-146.0","f000e03e-9d6a-4a40-a853-8d27815b1b95","","1500","250","stim","","<div class = centerbox><div class = stroop-stim style = ""color:green"">GREEN</div></div>","66,71,82","1500","test","true","71","500","congruent","green","green","","",""
"-1","-1","poldrack-single-stim","147","316470","0.0-147.0","f000e03e-9d6a-4a40-a853-8d27815b1b95","","500","500","fixation","","<div class = centerbox><div class = fixation>+</div></div>","none","500","test","","","","","","","","",""
"514","66","poldrack-categorize","148","318984","0.0-148.0","f000e03e-9d6a-4a40-a853-8d27815b1b95","","1500","250","stim","","<div class = centerbox><div class = stroop-stim style = ""color:blue"">BLUE</div></div>","66,71,82","1500","test","true","66","500","congruent","blue","blue","","",""
"-1","-1","poldrack-single-stim","149","319738","0.0-149.0","f000e03e-9d6a-4a40-a853-8d27815b1b95","","500","500","fixation","","<div class = centerbox><div class = fixation>+</div></div>","none","500","test","","","","","","","","",""
"580","71","poldrack-categorize","150","322252","0.0-150.0","f000e03e-9d6a-4a40-a853-8d27815b1b95","","1500","250","stim","","<div class = centerbox><div class = stroop-stim style = ""color:green"">BLUE</div></div>","66,71,82","1500","test","true","71","500","incongruent","green","blue","","",""
"-1","-1","poldrack-single-stim","151","323012","0.0-151.0","f000e03e-9d6a-4a40-a853-8d27815b1b95","","500","500","fixation","","<div class = centerbox><div class = fixation>+</div></div>","none","500","test","","","","","","","","",""
"660","82","poldrack-categorize","152","325525","0.0-152.0","f000e03e-9d6a-4a40-a853-8d27815b1b95","","1500","250","stim","","<div class = centerbox><div class = stroop-stim style = ""color:red"">RED</div></div>","66,71,82","1500","test","true","82","500","congruent","red","red","","",""
"-1","-1","poldrack-single-stim","153","326286","0.0-153.0","f000e03e-9d6a-4a40-a853-8d27815b1b95","","500","500","fixation","","<div class = centerbox><div class = fixation>+</div></div>","none","500","test","","","","","","","","",""
"513","82","poldrack-categorize","154","328799","0.0-154.0","f000e03e-9d6a-4a40-a853-8d27815b1b95","","1500","250","stim","","<div class = centerbox><div class = stroop-stim style = ""color:red"">GREEN</div></div>","66,71,82","1500","test","true","82","500","incongruent","red","green","","",""
"-1","-1","poldrack-single-stim","155","329560","0.0-155.0","f000e03e-9d6a-4a40-a853-8d27815b1b95","","500","500","fixation","","<div class = centerbox><div class = fixation>+</div></div>","none","500","test","","","","","","","","",""
"639","66","poldrack-categorize","156","332073","0.0-156.0","f000e03e-9d6a-4a40-a853-8d27815b1b95","","1500","250","stim","","<div class = centerbox><div class = stroop-stim style = ""color:blue"">BLUE</div></div>","66,71,82","1500","test","true","66","500","congruent","blue","blue","","",""
"-1","-1","poldrack-single-stim","157","332834","0.0-157.0","f000e03e-9d6a-4a40-a853-8d27815b1b95","","500","500","fixation","","<div class = centerbox><div class = fixation>+</div></div>","none","500","test","","","","","","","","",""
"710","82","poldrack-categorize","158","335343","0.0-158.0","f000e03e-9d6a-4a40-a853-8d27815b1b95","","1500","250","stim","","<div class = centerbox><div class = stroop-stim style = ""color:red"">RED</div></div>","66,71,82","1500","test","true","82","500","congruent","red","red","","",""
"-1","-1","poldrack-single-stim","159","336102","0.0-159.0","f000e03e-9d6a-4a40-a853-8d27815b1b95","","500","500","fixation","","<div class = centerbox><div class = fixation>+</div></div>","none","500","test","","","","","","","","",""
"864","66","poldrack-categorize","160","338615","0.0-160.0","f000e03e-9d6a-4a40-a853-8d27815b1b95","","1500","250","stim","","<div class = centerbox><div class = stroop-stim style = ""color:blue"">RED</div></div>","66,71,82","1500","test","true","66","500","incongruent","blue","red","","",""
"-1","-1","poldrack-single-stim","161","339375","0.0-161.0","f000e03e-9d6a-4a40-a853-8d27815b1b95","","500","500","fixation","","<div class = centerbox><div class = fixation>+</div></div>","none","500","test","","","","","","","","",""
"615","82","poldrack-categorize","162","341885","0.0-162.0","f000e03e-9d6a-4a40-a853-8d27815b1b95","","1500","250","stim","","<div class = centerbox><div class = stroop-stim style = ""color:red"">RED</div></div>","66,71,82","1500","test","true","82","500","congruent","red","red","","",""
"-1","-1","poldrack-single-stim","163","342644","0.0-163.0","f000e03e-9d6a-4a40-a853-8d27815b1b95","","500","500","fixation","","<div class = centerbox><div class = fixation>+</div></div>","none","500","test","","","","","","","","",""
"866","66","poldrack-categorize","164","345153","0.0-164.0","f000e03e-9d6a-4a40-a853-8d27815b1b95","","1500","250","stim","","<div class = centerbox><div class = stroop-stim style = ""color:blue"">RED</div></div>","66,71,82","1500","test","true","66","500","incongruent","blue","red","","",""
"-1","-1","poldrack-single-stim","165","345911","0.0-165.0","f000e03e-9d6a-4a40-a853-8d27815b1b95","","500","500","fixation","","<div class = centerbox><div class = fixation>+</div></div>","none","500","test","","","","","","","","",""
"461","71","poldrack-categorize","166","348425","0.0-166.0","f000e03e-9d6a-4a40-a853-8d27815b1b95","","1500","250","stim","","<div class = centerbox><div class = stroop-stim style = ""color:green"">GREEN</div></div>","66,71,82","1500","test","true","71","500","congruent","green","green","","",""
"-1","-1","poldrack-single-stim","167","349185","0.0-167.0","f000e03e-9d6a-4a40-a853-8d27815b1b95","","500","500","fixation","","<div class = centerbox><div class = fixation>+</div></div>","none","500","test","","","","","","","","",""
"443","82","poldrack-categorize","168","351698","0.0-168.0","f000e03e-9d6a-4a40-a853-8d27815b1b95","","1500","250","stim","","<div class = centerbox><div class = stroop-stim style = ""color:red"">GREEN</div></div>","66,71,82","1500","test","true","82","500","incongruent","red","green","","",""
"-1","-1","poldrack-single-stim","169","352459","0.0-169.0","f000e03e-9d6a-4a40-a853-8d27815b1b95","","500","500","fixation","","<div class = centerbox><div class = fixation>+</div></div>","none","500","test","","","","","","","","",""
"803","71","poldrack-categorize","170","354972","0.0-170.0","f000e03e-9d6a-4a40-a853-8d27815b1b95","","1500","250","stim","","<div class = centerbox><div class = stroop-stim style = ""color:green"">RED</div></div>","66,71,82","1500","test","true","71","500","incongruent","green","red","","",""
"-1","-1","poldrack-single-stim","171","355728","0.0-171.0","f000e03e-9d6a-4a40-a853-8d27815b1b95","","500","500","fixation","","<div class = centerbox><div class = fixation>+</div></div>","none","500","test","","","","","","","","",""
"1227","66","poldrack-categorize","172","358240","0.0-172.0","f000e03e-9d6a-4a40-a853-8d27815b1b95","","1500","250","stim","","<div class = centerbox><div class = stroop-stim style = ""color:blue"">RED</div></div>","66,71,82","1500","test","true","66","500","incongruent","blue","red","","",""
"-1","-1","poldrack-single-stim","173","359001","0.0-173.0","f000e03e-9d6a-4a40-a853-8d27815b1b95","","500","500","fixation","","<div class = centerbox><div class = fixation>+</div></div>","none","500","test","","","","","","","","",""
"452","82","poldrack-categorize","174","361514","0.0-174.0","f000e03e-9d6a-4a40-a853-8d27815b1b95","","1500","250","stim","","<div class = centerbox><div class = stroop-stim style = ""color:red"">RED</div></div>","66,71,82","1500","test","true","82","500","congruent","red","red","","",""
"-1","-1","poldrack-single-stim","175","362275","0.0-175.0","f000e03e-9d6a-4a40-a853-8d27815b1b95","","500","500","fixation","","<div class = centerbox><div class = fixation>+</div></div>","none","500","test","","","","","","","","",""
"451","82","poldrack-categorize","176","364788","0.0-176.0","f000e03e-9d6a-4a40-a853-8d27815b1b95","","1500","250","stim","","<div class = centerbox><div class = stroop-stim style = ""color:red"">RED</div></div>","66,71,82","1500","test","true","82","500","congruent","red","red","","",""
"-1","-1","poldrack-single-stim","177","365548","0.0-177.0","f000e03e-9d6a-4a40-a853-8d27815b1b95","","500","500","fixation","","<div class = centerbox><div class = fixation>+</div></div>","none","500","test","","","","","","","","",""
"472","82","poldrack-categorize","178","368062","0.0-178.0","f000e03e-9d6a-4a40-a853-8d27815b1b95","","1500","250","stim","","<div class = centerbox><div class = stroop-stim style = ""color:red"">BLUE</div></div>","66,71,82","1500","test","true","82","500","incongruent","red","blue","","",""
"-1","-1","poldrack-single-stim","179","368822","0.0-179.0","f000e03e-9d6a-4a40-a853-8d27815b1b95","","500","500","fixation","","<div class = centerbox><div class = fixation>+</div></div>","none","500","test","","","","","","","","",""
"559","82","poldrack-categorize","180","371335","0.0-180.0","f000e03e-9d6a-4a40-a853-8d27815b1b95","","1500","250","stim","","<div class = centerbox><div class = stroop-stim style = ""color:red"">RED</div></div>","66,71,82","1500","test","true","82","500","congruent","red","red","","",""
"-1","-1","poldrack-single-stim","181","372096","0.0-181.0","f000e03e-9d6a-4a40-a853-8d27815b1b95","","500","500","fixation","","<div class = centerbox><div class = fixation>+</div></div>","none","500","test","","","","","","","","",""
"531","82","poldrack-categorize","182","374609","0.0-182.0","f000e03e-9d6a-4a40-a853-8d27815b1b95","","1500","250","stim","","<div class = centerbox><div class = stroop-stim style = ""color:red"">BLUE</div></div>","66,71,82","1500","test","true","82","500","incongruent","red","blue","","",""
"-1","-1","poldrack-single-stim","183","375370","0.0-183.0","f000e03e-9d6a-4a40-a853-8d27815b1b95","","500","500","fixation","","<div class = centerbox><div class = fixation>+</div></div>","none","500","test","","","","","","","","",""
"657","66","poldrack-categorize","184","377883","0.0-184.0","f000e03e-9d6a-4a40-a853-8d27815b1b95","","1500","250","stim","","<div class = centerbox><div class = stroop-stim style = ""color:blue"">GREEN</div></div>","66,71,82","1500","test","true","66","500","incongruent","blue","green","","",""
"-1","-1","poldrack-single-stim","185","378644","0.0-185.0","f000e03e-9d6a-4a40-a853-8d27815b1b95","","500","500","fixation","","<div class = centerbox><div class = fixation>+</div></div>","none","500","test","","","","","","","","",""
"489","66","poldrack-categorize","186","381157","0.0-186.0","f000e03e-9d6a-4a40-a853-8d27815b1b95","","1500","250","stim","","<div class = centerbox><div class = stroop-stim style = ""color:blue"">RED</div></div>","66,71,82","1500","test","true","66","500","incongruent","blue","red","","",""
"-1","-1","poldrack-single-stim","187","381917","0.0-187.0","f000e03e-9d6a-4a40-a853-8d27815b1b95","","500","500","fixation","","<div class = centerbox><div class = fixation>+</div></div>","none","500","test","","","","","","","","",""
"383","71","poldrack-categorize","188","384431","0.0-188.0","f000e03e-9d6a-4a40-a853-8d27815b1b95","","1500","250","stim","","<div class = centerbox><div class = stroop-stim style = ""color:green"">GREEN</div></div>","66,71,82","1500","test","true","71","500","congruent","green","green","","",""
"-1","-1","poldrack-single-stim","189","385191","0.0-189.0","f000e03e-9d6a-4a40-a853-8d27815b1b95","","500","500","fixation","","<div class = centerbox><div class = fixation>+</div></div>","none","500","test","","","","","","","","",""
"525","82","poldrack-categorize","190","387705","0.0-190.0","f000e03e-9d6a-4a40-a853-8d27815b1b95","","1500","250","stim","","<div class = centerbox><div class = stroop-stim style = ""color:red"">RED</div></div>","66,71,82","1500","test","true","82","500","congruent","red","red","","",""
"-1","-1","poldrack-single-stim","191","388465","0.0-191.0","f000e03e-9d6a-4a40-a853-8d27815b1b95","","500","500","fixation","","<div class = centerbox><div class = fixation>+</div></div>","none","500","test","","","","","","","","",""
"720","66","poldrack-categorize","192","390978","0.0-192.0","f000e03e-9d6a-4a40-a853-8d27815b1b95","","1500","250","stim","","<div class = centerbox><div class = stroop-stim style = ""color:blue"">BLUE</div></div>","66,71,82","1500","test","true","66","500","congruent","blue","blue","","",""
"-1","-1","poldrack-single-stim","193","391733","0.0-193.0","f000e03e-9d6a-4a40-a853-8d27815b1b95","","500","500","fixation","","<div class = centerbox><div class = fixation>+</div></div>","none","500","test","","","","","","","","",""
"452","66","poldrack-categorize","194","394246","0.0-194.0","f000e03e-9d6a-4a40-a853-8d27815b1b95","","1500","250","stim","","<div class = centerbox><div class = stroop-stim style = ""color:blue"">BLUE</div></div>","66,71,82","1500","test","true","66","500","congruent","blue","blue","","",""
"-1","-1","poldrack-single-stim","195","395007","0.0-195.0","f000e03e-9d6a-4a40-a853-8d27815b1b95","","500","500","fixation","","<div class = centerbox><div class = fixation>+</div></div>","none","500","test","","","","","","","","",""
"540","82","poldrack-categorize","196","397520","0.0-196.0","f000e03e-9d6a-4a40-a853-8d27815b1b95","","1500","250","stim","","<div class = centerbox><div class = stroop-stim style = ""color:red"">BLUE</div></div>","66,71,82","1500","test","true","82","500","incongruent","red","blue","","",""
"-1","-1","poldrack-single-stim","197","398281","0.0-197.0","f000e03e-9d6a-4a40-a853-8d27815b1b95","","500","500","fixation","","<div class = centerbox><div class = fixation>+</div></div>","none","500","test","","","","","","","","",""
"546","71","poldrack-categorize","198","400794","0.0-198.0","f000e03e-9d6a-4a40-a853-8d27815b1b95","","1500","250","stim","","<div class = centerbox><div class = stroop-stim style = ""color:green"">GREEN</div></div>","66,71,82","1500","test","true","71","500","congruent","green","green","","",""
"-1","-1","poldrack-single-stim","199","401555","0.0-199.0","f000e03e-9d6a-4a40-a853-8d27815b1b95","","500","500","fixation","","<div class = centerbox><div class = fixation>+</div></div>","none","500","test","","","","","","","","",""
"815","71","poldrack-categorize","200","404068","0.0-200.0","f000e03e-9d6a-4a40-a853-8d27815b1b95","","1500","250","stim","","<div class = centerbox><div class = stroop-stim style = ""color:green"">RED</div></div>","66,71,82","1500","test","true","71","500","incongruent","green","red","","",""
"-1","-1","poldrack-single-stim","201","404828","0.0-201.0","f000e03e-9d6a-4a40-a853-8d27815b1b95","","500","500","fixation","","<div class = centerbox><div class = fixation>+</div></div>","none","500","test","","","","","","","","",""
"550","82","poldrack-categorize","202","407342","0.0-202.0","f000e03e-9d6a-4a40-a853-8d27815b1b95","","1500","250","stim","","<div class = centerbox><div class = stroop-stim style = ""color:red"">RED</div></div>","66,71,82","1500","test","true","82","500","congruent","red","red","","",""
"-1","-1","poldrack-single-stim","203","408102","0.0-203.0","f000e03e-9d6a-4a40-a853-8d27815b1b95","","500","500","fixation","","<div class = centerbox><div class = fixation>+</div></div>","none","500","test","","","","","","","","",""
"765","71","poldrack-categorize","204","410615","0.0-204.0","f000e03e-9d6a-4a40-a853-8d27815b1b95","","1500","250","stim","","<div class = centerbox><div class = stroop-stim style = ""color:green"">BLUE</div></div>","66,71,82","1500","test","true","71","500","incongruent","green","blue","","",""
"-1","-1","poldrack-single-stim","205","411376","0.0-205.0","f000e03e-9d6a-4a40-a853-8d27815b1b95","","500","500","fixation","","<div class = centerbox><div class = fixation>+</div></div>","none","500","test","","","","","","","","",""
"474","71","poldrack-categorize","206","413889","0.0-206.0","f000e03e-9d6a-4a40-a853-8d27815b1b95","","1500","250","stim","","<div class = centerbox><div class = stroop-stim style = ""color:green"">BLUE</div></div>","66,71,82","1500","test","true","71","500","incongruent","green","blue","","",""
"-1","-1","poldrack-single-stim","207","414650","0.0-207.0","f000e03e-9d6a-4a40-a853-8d27815b1b95","","500","500","fixation","","<div class = centerbox><div class = fixation>+</div></div>","none","500","test","","","","","","","","",""
"439","71","poldrack-categorize","208","417163","0.0-208.0","f000e03e-9d6a-4a40-a853-8d27815b1b95","","1500","250","stim","","<div class = centerbox><div class = stroop-stim style = ""color:green"">GREEN</div></div>","66,71,82","1500","test","true","71","500","congruent","green","green","","",""
"-1","-1","poldrack-single-stim","209","417924","0.0-209.0","f000e03e-9d6a-4a40-a853-8d27815b1b95","","500","500","fixation","","<div class = centerbox><div class = fixation>+</div></div>","none","500","test","","","","","","","","",""
"550","82","poldrack-categorize","210","420437","0.0-210.0","f000e03e-9d6a-4a40-a853-8d27815b1b95","","1500","250","stim","","<div class = centerbox><div class = stroop-stim style = ""color:blue"">GREEN</div></div>","66,71,82","1500","test","false","66","500","incongruent","blue","green","","",""
"-1","-1","poldrack-single-stim","211","421197","0.0-211.0","f000e03e-9d6a-4a40-a853-8d27815b1b95","","500","500","fixation","","<div class = centerbox><div class = fixation>+</div></div>","none","500","test","","","","","","","","",""
"876","66","poldrack-categorize","212","423711","0.0-212.0","f000e03e-9d6a-4a40-a853-8d27815b1b95","","1500","250","stim","","<div class = centerbox><div class = stroop-stim style = ""color:blue"">BLUE</div></div>","66,71,82","1500","test","true","66","500","congruent","blue","blue","","",""
"-1","-1","poldrack-single-stim","213","424471","0.0-213.0","f000e03e-9d6a-4a40-a853-8d27815b1b95","","500","500","fixation","","<div class = centerbox><div class = fixation>+</div></div>","none","500","test","","","","","","","","",""
"586","82","poldrack-categorize","214","426984","0.0-214.0","f000e03e-9d6a-4a40-a853-8d27815b1b95","","1500","250","stim","","<div class = centerbox><div class = stroop-stim style = ""color:green"">GREEN</div></div>","66,71,82","1500","test","false","71","500","congruent","green","green","","",""
"-1","-1","poldrack-single-stim","215","427745","0.0-215.0","f000e03e-9d6a-4a40-a853-8d27815b1b95","","500","500","fixation","","<div class = centerbox><div class = fixation>+</div></div>","none","500","test","","","","","","","","",""
"942","82","poldrack-categorize","216","430258","0.0-216.0","f000e03e-9d6a-4a40-a853-8d27815b1b95","","1500","250","stim","","<div class = centerbox><div class = stroop-stim style = ""color:red"">BLUE</div></div>","66,71,82","1500","test","true","82","500","incongruent","red","blue","","",""
"-1","-1","poldrack-single-stim","217","431019","0.0-217.0","f000e03e-9d6a-4a40-a853-8d27815b1b95","","500","500","fixation","","<div class = centerbox><div class = fixation>+</div></div>","none","500","test","","","","","","","","",""
"550","82","poldrack-categorize","218","433532","0.0-218.0","f000e03e-9d6a-4a40-a853-8d27815b1b95","","1500","250","stim","","<div class = centerbox><div class = stroop-stim style = ""color:red"">RED</div></div>","66,71,82","1500","test","true","82","500","congruent","red","red","","",""
"-1","-1","poldrack-single-stim","219","434287","0.0-219.0","f000e03e-9d6a-4a40-a853-8d27815b1b95","","500","500","fixation","","<div class = centerbox><div class = fixation>+</div></div>","none","500","test","","","","","","","","",""
"736","66","poldrack-categorize","220","436800","0.0-220.0","f000e03e-9d6a-4a40-a853-8d27815b1b95","","1500","250","stim","","<div class = centerbox><div class = stroop-stim style = ""color:blue"">BLUE</div></div>","66,71,82","1500","test","true","66","500","congruent","blue","blue","","",""
"-1","-1","poldrack-single-stim","221","437561","0.0-221.0","f000e03e-9d6a-4a40-a853-8d27815b1b95","","500","500","fixation","","<div class = centerbox><div class = fixation>+</div></div>","none","500","test","","","","","","","","",""
"527","82","poldrack-categorize","222","440074","0.0-222.0","f000e03e-9d6a-4a40-a853-8d27815b1b95","","1500","250","stim","","<div class = centerbox><div class = stroop-stim style = ""color:red"">BLUE</div></div>","66,71,82","1500","test","true","82","500","incongruent","red","blue","","",""
"-1","-1","poldrack-single-stim","223","440834","0.0-223.0","f000e03e-9d6a-4a40-a853-8d27815b1b95","","500","500","fixation","","<div class = centerbox><div class = fixation>+</div></div>","none","500","test","","","","","","","","",""
"838","66","poldrack-categorize","224","443348","0.0-224.0","f000e03e-9d6a-4a40-a853-8d27815b1b95","","1500","250","stim","","<div class = centerbox><div class = stroop-stim style = ""color:blue"">RED</div></div>","66,71,82","1500","test","true","66","500","incongruent","blue","red","","",""
"-1","-1","poldrack-single-stim","225","444108","0.0-225.0","f000e03e-9d6a-4a40-a853-8d27815b1b95","","500","500","fixation","","<div class = centerbox><div class = fixation>+</div></div>","none","500","test","","","","","","","","",""
"442","71","poldrack-categorize","226","446621","0.0-226.0","f000e03e-9d6a-4a40-a853-8d27815b1b95","","1500","250","stim","","<div class = centerbox><div class = stroop-stim style = ""color:green"">GREEN</div></div>","66,71,82","1500","test","true","71","500","congruent","green","green","","",""
"-1","-1","poldrack-single-stim","227","447376","0.0-227.0","f000e03e-9d6a-4a40-a853-8d27815b1b95","","500","500","fixation","","<div class = centerbox><div class = fixation>+</div></div>","none","500","test","","","","","","","","",""
"582","82","poldrack-categorize","228","449889","0.0-228.0","f000e03e-9d6a-4a40-a853-8d27815b1b95","","1500","250","stim","","<div class = centerbox><div class = stroop-stim style = ""color:red"">GREEN</div></div>","66,71,82","1500","test","true","82","500","incongruent","red","green","","",""
"-1","-1","poldrack-single-stim","229","450650","0.0-229.0","f000e03e-9d6a-4a40-a853-8d27815b1b95","","500","500","fixation","","<div class = centerbox><div class = fixation>+</div></div>","none","500","test","","","","","","","","",""
"446","82","poldrack-categorize","230","453163","0.0-230.0","f000e03e-9d6a-4a40-a853-8d27815b1b95","","1500","250","stim","","<div class = centerbox><div class = stroop-stim style = ""color:red"">RED</div></div>","66,71,82","1500","test","true","82","500","congruent","red","red","","",""
"-1","-1","poldrack-single-stim","231","453924","0.0-231.0","f000e03e-9d6a-4a40-a853-8d27815b1b95","","500","500","fixation","","<div class = centerbox><div class = fixation>+</div></div>","none","500","test","","","","","","","","",""
"621","71","poldrack-categorize","232","456431","0.0-232.0","f000e03e-9d6a-4a40-a853-8d27815b1b95","","1500","250","stim","","<div class = centerbox><div class = stroop-stim style = ""color:green"">GREEN</div></div>","66,71,82","1500","test","true","71","500","congruent","green","green","","",""
"-1","-1","poldrack-single-stim","233","457192","0.0-233.0","f000e03e-9d6a-4a40-a853-8d27815b1b95","","500","500","fixation","","<div class = centerbox><div class = fixation>+</div></div>","none","500","test","","","","","","","","",""
"407","71","poldrack-categorize","234","459702","0.0-234.0","f000e03e-9d6a-4a40-a853-8d27815b1b95","","1500","250","stim","","<div class = centerbox><div class = stroop-stim style = ""color:green"">BLUE</div></div>","66,71,82","1500","test","true","71","500","incongruent","green","blue","","",""
"-1","-1","poldrack-single-stim","235","460460","0.0-235.0","f000e03e-9d6a-4a40-a853-8d27815b1b95","","500","500","fixation","","<div class = centerbox><div class = fixation>+</div></div>","none","500","test","","","","","","","","",""
"641","82","poldrack-categorize","236","462973","0.0-236.0","f000e03e-9d6a-4a40-a853-8d27815b1b95","","1500","250","stim","","<div class = centerbox><div class = stroop-stim style = ""color:red"">RED</div></div>","66,71,82","1500","test","true","82","500","congruent","red","red","","",""
"-1","-1","poldrack-single-stim","237","463734","0.0-237.0","f000e03e-9d6a-4a40-a853-8d27815b1b95","","500","500","fixation","","<div class = centerbox><div class = fixation>+</div></div>","none","500","test","","","","","","","","",""
"457","82","poldrack-categorize","238","466247","0.0-238.0","f000e03e-9d6a-4a40-a853-8d27815b1b95","","1500","250","stim","","<div class = centerbox><div class = stroop-stim style = ""color:red"">BLUE</div></div>","66,71,82","1500","test","true","82","500","incongruent","red","blue","","",""
"-1","-1","poldrack-single-stim","239","467007","0.0-239.0","f000e03e-9d6a-4a40-a853-8d27815b1b95","","500","500","fixation","","<div class = centerbox><div class = fixation>+</div></div>","none","500","test","","","","","","","","",""
"599","66","poldrack-categorize","240","469521","0.0-240.0","f000e03e-9d6a-4a40-a853-8d27815b1b95","","1500","250","stim","","<div class = centerbox><div class = stroop-stim style = ""color:blue"">BLUE</div></div>","66,71,82","1500","test","true","66","500","congruent","blue","blue","","",""
"-1","-1","poldrack-single-stim","241","470281","0.0-241.0","f000e03e-9d6a-4a40-a853-8d27815b1b95","","500","500","fixation","","<div class = centerbox><div class = fixation>+</div></div>","none","500","test","","","","","","","","",""
"508","66","poldrack-categorize","242","472794","0.0-242.0","f000e03e-9d6a-4a40-a853-8d27815b1b95","","1500","250","stim","","<div class = centerbox><div class = stroop-stim style = ""color:blue"">BLUE</div></div>","66,71,82","1500","test","true","66","500","congruent","blue","blue","","",""
"-1","-1","poldrack-single-stim","243","473555","0.0-243.0","f000e03e-9d6a-4a40-a853-8d27815b1b95","","500","500","fixation","","<div class = centerbox><div class = fixation>+</div></div>","none","500","test","","","","","","","","",""
"547","66","poldrack-categorize","244","476068","0.0-244.0","f000e03e-9d6a-4a40-a853-8d27815b1b95","","1500","250","stim","","<div class = centerbox><div class = stroop-stim style = ""color:blue"">GREEN</div></div>","66,71,82","1500","test","true","66","500","incongruent","blue","green","","",""
"22472","","survey-text","245","498807","0.0-246.0","f000e03e-9d6a-4a40-a853-8d27815b1b95","","","","post task questions","","","","","","","","","","","","{""Q0"":""press r red a red color, g for a green color, and b for a blue color"",""Q1"":""""}","",""
"-1","-1","poldrack-text","246","679799","0.0-247.0","f000e03e-9d6a-4a40-a853-8d27815b1b95","<div class = centerbox><p class = center-block-text>Thanks for completing this task!</p><p class = center-block-text>Press <strong>enter</strong> to continue.</p></div>","180000","0","end","","","","","","","","","","","","","stroop","true"
"71115","13","text","247","750948","0.0-248.0","f000e03e-9d6a-4a40-a853-8d27815b1b95","","","","","","","","","","","","","","","","","",""
