rt,key_press,trial_type,trial_index,time_elapsed,internal_node_id,subject,text,block_duration,timing_post_trial,trial_id,view_history,stimulus,possible_responses,stim_duration,exp_stage,correct,correct_response,feedback_duration,condition,stim_color,stim_word,responses,exp_id,credit_var,stim_place,stim_id8340,13,text,0,8341,0.0-0.0,093075a6-ff43-4260-bc39-5c8a206a6e2e,,,,,,,,,,,,,,,,,,,,3951,13,poldrack-text,1,13299,0.0-1.0-0.0,093075a6-ff43-4260-bc39-5c8a206a6e2e,<div class = centerbox><p class = center-block-text>Welcome to the experiment. This experiment will take about 8 minutes. Press <strong>enter</strong> to begin.</p></div>,3951,0,instruction,,,,,,,,,,,,,,,,19863,,poldrack-instructions,2,33163,0.0-1.0-1.0,093075a6-ff43-4260-bc39-5c8a206a6e2e,,,,instruction,"[{""page_index"":0,""viewing_time"":19862}]",,,,,,,,,,,,,,,2977,13,poldrack-text,3,37146,0.0-2.0,093075a6-ff43-4260-bc39-5c8a206a6e2e,"<div class = centerbox><p class = block-text>We will start with a few practice trials. Remember, press the key corresponding to the <strong>ink</strong> color of the word: ""r"" for words colored red, ""b"" for words colored blue, and ""g"" for words colored green.</p><p class = block-text>Press <strong>enter</strong> to begin practice.</p></div>",2977,1000,practice_intro,,,,,,,,,,,,,,,,-1,-1,poldrack-single-stim,4,38656,0.0-3.0,093075a6-ff43-4260-bc39-5c8a206a6e2e,,500,500,fixation,,<div class = centerbox><div class = fixation>+</div></div>,none,500,practice,,,,,,,,,,,1011,71,poldrack-categorize,5,41167,0.0-4.0,093075a6-ff43-4260-bc39-5c8a206a6e2e,,1500,250,stim,,"<div class = centerbox><div class = stroop-stim style = ""color:green"">GREEN</div></div>","66,71,82",1500,practice,TRUE,71,500,congruent,green,green,,,,,-1,-1,poldrack-single-stim,6,41923,0.0-5.0,093075a6-ff43-4260-bc39-5c8a206a6e2e,,500,500,fixation,,<div class = centerbox><div class = fixation>+</div></div>,none,500,practice,,,,,,,,,,,844,66,poldrack-categorize,7,44436,0.0-6.0,093075a6-ff43-4260-bc39-5c8a206a6e2e,,1500,250,stim,,"<div class = centerbox><div class = stroop-stim style = ""color:blue"">RED</div></div>","66,71,82",1500,practice,TRUE,66,500,incongruent,blue,red,,,,,-1,-1,poldrack-single-stim,8,45195,0.0-7.0,093075a6-ff43-4260-bc39-5c8a206a6e2e,,500,500,fixation,,<div class = centerbox><div class = fixation>+</div></div>,none,500,practice,,,,,,,,,,,736,71,poldrack-categorize,9,47704,0.0-8.0,093075a6-ff43-4260-bc39-5c8a206a6e2e,,1500,250,stim,,"<div class = centerbox><div class = stroop-stim style = ""color:green"">GREEN</div></div>","66,71,82",1500,practice,TRUE,71,500,congruent,green,green,,,,,-1,-1,poldrack-single-stim,10,48465,0.0-9.0,093075a6-ff43-4260-bc39-5c8a206a6e2e,,500,500,fixation,,<div class = centerbox><div class = fixation>+</div></div>,none,500,practice,,,,,,,,,,,694,66,poldrack-categorize,11,50979,0.0-10.0,093075a6-ff43-4260-bc39-5c8a206a6e2e,,1500,250,stim,,"<div class = centerbox><div class = stroop-stim style = ""color:blue"">BLUE</div></div>","66,71,82",1500,practice,TRUE,66,500,congruent,blue,blue,,,,,-1,-1,poldrack-single-stim,12,51739,0.0-11.0,093075a6-ff43-4260-bc39-5c8a206a6e2e,,500,500,fixation,,<div class = centerbox><div class = fixation>+</div></div>,none,500,practice,,,,,,,,,,,572,82,poldrack-categorize,13,54246,0.0-12.0,093075a6-ff43-4260-bc39-5c8a206a6e2e,,1500,250,stim,,"<div class = centerbox><div class = stroop-stim style = ""color:red"">RED</div></div>","66,71,82",1500,practice,TRUE,82,500,congruent,red,red,,,,,-1,-1,poldrack-single-stim,14,55007,0.0-13.0,093075a6-ff43-4260-bc39-5c8a206a6e2e,,500,500,fixation,,<div class = centerbox><div class = fixation>+</div></div>,none,500,practice,,,,,,,,,,,418,71,poldrack-categorize,15,57520,0.0-14.0,093075a6-ff43-4260-bc39-5c8a206a6e2e,,1500,250,stim,,"<div class = centerbox><div class = stroop-stim style = ""color:green"">GREEN</div></div>","66,71,82",1500,practice,TRUE,71,500,congruent,green,green,,,,,-1,-1,poldrack-single-stim,16,58279,0.0-15.0,093075a6-ff43-4260-bc39-5c8a206a6e2e,,500,500,fixation,,<div class = centerbox><div class = fixation>+</div></div>,none,500,practice,,,,,,,,,,,436,71,poldrack-categorize,17,60784,0.0-16.0,093075a6-ff43-4260-bc39-5c8a206a6e2e,,1500,250,stim,,"<div class = centerbox><div class = stroop-stim style = ""color:green"">BLUE</div></div>","66,71,82",1500,practice,TRUE,71,500,incongruent,green,blue,,,,,-1,-1,poldrack-single-stim,18,61543,0.0-17.0,093075a6-ff43-4260-bc39-5c8a206a6e2e,,500,500,fixation,,<div class = centerbox><div class = fixation>+</div></div>,none,500,practice,,,,,,,,,,,889,66,poldrack-categorize,19,64056,0.0-18.0,093075a6-ff43-4260-bc39-5c8a206a6e2e,,1500,250,stim,,"<div class = centerbox><div class = stroop-stim style = ""color:blue"">GREEN</div></div>","66,71,82",1500,practice,TRUE,66,500,incongruent,blue,green,,,,,-1,-1,poldrack-single-stim,20,64817,0.0-19.0,093075a6-ff43-4260-bc39-5c8a206a6e2e,,500,500,fixation,,<div class = centerbox><div class = fixation>+</div></div>,none,500,practice,,,,,,,,,,,582,82,poldrack-categorize,21,67330,0.0-20.0,093075a6-ff43-4260-bc39-5c8a206a6e2e,,1500,250,stim,,"<div class = centerbox><div class = stroop-stim style = ""color:red"">GREEN</div></div>","66,71,82",1500,practice,TRUE,82,500,incongruent,red,green,,,,,-1,-1,poldrack-single-stim,22,68085,0.0-21.0,093075a6-ff43-4260-bc39-5c8a206a6e2e,,500,500,fixation,,<div class = centerbox><div class = fixation>+</div></div>,none,500,practice,,,,,,,,,,,725,71,poldrack-categorize,23,70592,0.0-22.0,093075a6-ff43-4260-bc39-5c8a206a6e2e,,1500,250,stim,,"<div class = centerbox><div class = stroop-stim style = ""color:green"">RED</div></div>","66,71,82",1500,practice,TRUE,71,500,incongruent,green,red,,,,,-1,-1,poldrack-single-stim,24,71353,0.0-23.0,093075a6-ff43-4260-bc39-5c8a206a6e2e,,500,500,fixation,,<div class = centerbox><div class = fixation>+</div></div>,none,500,practice,,,,,,,,,,,869,82,poldrack-categorize,25,73866,0.0-24.0,093075a6-ff43-4260-bc39-5c8a206a6e2e,,1500,250,stim,,"<div class = centerbox><div class = stroop-stim style = ""color:red"">BLUE</div></div>","66,71,82",1500,practice,TRUE,82,500,incongruent,red,blue,,,,,-1,-1,poldrack-single-stim,26,74626,0.0-25.0,093075a6-ff43-4260-bc39-5c8a206a6e2e,,500,500,fixation,,<div class = centerbox><div class = fixation>+</div></div>,none,500,practice,,,,,,,,,,,677,66,poldrack-categorize,27,77139,0.0-26.0,093075a6-ff43-4260-bc39-5c8a206a6e2e,,1500,250,stim,,"<div class = centerbox><div class = stroop-stim style = ""color:blue"">GREEN</div></div>","66,71,82",1500,practice,TRUE,66,500,incongruent,blue,green,,,,,-1,-1,poldrack-single-stim,28,77900,0.0-27.0,093075a6-ff43-4260-bc39-5c8a206a6e2e,,500,500,fixation,,<div class = centerbox><div class = fixation>+</div></div>,none,500,practice,,,,,,,,,,,737,82,poldrack-categorize,29,80413,0.0-28.0,093075a6-ff43-4260-bc39-5c8a206a6e2e,,1500,250,stim,,"<div class = centerbox><div class = stroop-stim style = ""color:red"">RED</div></div>","66,71,82",1500,practice,TRUE,82,500,congruent,red,red,,,,,-1,-1,poldrack-single-stim,30,81174,0.0-29.0,093075a6-ff43-4260-bc39-5c8a206a6e2e,,500,500,fixation,,<div class = centerbox><div class = fixation>+</div></div>,none,500,practice,,,,,,,,,,,639,71,poldrack-categorize,31,83687,0.0-30.0,093075a6-ff43-4260-bc39-5c8a206a6e2e,,1500,250,stim,,"<div class = centerbox><div class = stroop-stim style = ""color:green"">RED</div></div>","66,71,82",1500,practice,TRUE,71,500,incongruent,green,red,,,,,-1,-1,poldrack-single-stim,32,84448,0.0-31.0,093075a6-ff43-4260-bc39-5c8a206a6e2e,,500,500,fixation,,<div class = centerbox><div class = fixation>+</div></div>,none,500,practice,,,,,,,,,,,549,71,poldrack-categorize,33,86961,0.0-32.0,093075a6-ff43-4260-bc39-5c8a206a6e2e,,1500,250,stim,,"<div class = centerbox><div class = stroop-stim style = ""color:green"">BLUE</div></div>","66,71,82",1500,practice,TRUE,71,500,incongruent,green,blue,,,,,-1,-1,poldrack-single-stim,34,87721,0.0-33.0,093075a6-ff43-4260-bc39-5c8a206a6e2e,,500,500,fixation,,<div class = centerbox><div class = fixation>+</div></div>,none,500,practice,,,,,,,,,,,771,66,poldrack-categorize,35,90235,0.0-34.0,093075a6-ff43-4260-bc39-5c8a206a6e2e,,1500,250,stim,,"<div class = centerbox><div class = stroop-stim style = ""color:blue"">RED</div></div>","66,71,82",1500,practice,TRUE,66,500,incongruent,blue,red,,,,,-1,-1,poldrack-single-stim,36,90995,0.0-35.0,093075a6-ff43-4260-bc39-5c8a206a6e2e,,500,500,fixation,,<div class = centerbox><div class = fixation>+</div></div>,none,500,practice,,,,,,,,,,,665,82,poldrack-categorize,37,93509,0.0-36.0,093075a6-ff43-4260-bc39-5c8a206a6e2e,,1500,250,stim,,"<div class = centerbox><div class = stroop-stim style = ""color:red"">RED</div></div>","66,71,82",1500,practice,TRUE,82,500,congruent,red,red,,,,,-1,-1,poldrack-single-stim,38,94269,0.0-37.0,093075a6-ff43-4260-bc39-5c8a206a6e2e,,500,500,fixation,,<div class = centerbox><div class = fixation>+</div></div>,none,500,practice,,,,,,,,,,,624,66,poldrack-categorize,39,96782,0.0-38.0,093075a6-ff43-4260-bc39-5c8a206a6e2e,,1500,250,stim,,"<div class = centerbox><div class = stroop-stim style = ""color:blue"">BLUE</div></div>","66,71,82",1500,practice,TRUE,66,500,congruent,blue,blue,,,,,-1,-1,poldrack-single-stim,40,97543,0.0-39.0,093075a6-ff43-4260-bc39-5c8a206a6e2e,,500,500,fixation,,<div class = centerbox><div class = fixation>+</div></div>,none,500,practice,,,,,,,,,,,973,82,poldrack-categorize,41,100056,0.0-40.0,093075a6-ff43-4260-bc39-5c8a206a6e2e,,1500,250,stim,,"<div class = centerbox><div class = stroop-stim style = ""color:red"">BLUE</div></div>","66,71,82",1500,practice,TRUE,82,500,incongruent,red,blue,,,,,-1,-1,poldrack-single-stim,42,100817,0.0-41.0,093075a6-ff43-4260-bc39-5c8a206a6e2e,,500,500,fixation,,<div class = centerbox><div class = fixation>+</div></div>,none,500,practice,,,,,,,,,,,796,82,poldrack-categorize,43,103330,0.0-42.0,093075a6-ff43-4260-bc39-5c8a206a6e2e,,1500,250,stim,,"<div class = centerbox><div class = stroop-stim style = ""color:red"">GREEN</div></div>","66,71,82",1500,practice,TRUE,82,500,incongruent,red,green,,,,,-1,-1,poldrack-single-stim,44,104091,0.0-43.0,093075a6-ff43-4260-bc39-5c8a206a6e2e,,500,500,fixation,,<div class = centerbox><div class = fixation>+</div></div>,none,500,practice,,,,,,,,,,,1144,66,poldrack-categorize,45,106603,0.0-44.0,093075a6-ff43-4260-bc39-5c8a206a6e2e,,1500,250,stim,,"<div class = centerbox><div class = stroop-stim style = ""color:blue"">BLUE</div></div>","66,71,82",1500,practice,TRUE,66,500,congruent,blue,blue,,,,,-1,-1,poldrack-single-stim,46,107359,0.0-45.0,093075a6-ff43-4260-bc39-5c8a206a6e2e,,500,500,fixation,,<div class = centerbox><div class = fixation>+</div></div>,none,500,practice,,,,,,,,,,,661,82,poldrack-categorize,47,109872,0.0-46.0,093075a6-ff43-4260-bc39-5c8a206a6e2e,,1500,250,stim,,"<div class = centerbox><div class = stroop-stim style = ""color:red"">RED</div></div>","66,71,82",1500,practice,TRUE,82,500,congruent,red,red,,,,,-1,-1,poldrack-single-stim,48,110632,0.0-47.0,093075a6-ff43-4260-bc39-5c8a206a6e2e,,500,500,fixation,,<div class = centerbox><div class = fixation>+</div></div>,none,500,practice,,,,,,,,,,,725,71,poldrack-categorize,49,113141,0.0-48.0,093075a6-ff43-4260-bc39-5c8a206a6e2e,,1500,250,stim,,"<div class = centerbox><div class = stroop-stim style = ""color:green"">GREEN</div></div>","66,71,82",1500,practice,TRUE,71,500,congruent,green,green,,,,,-1,-1,poldrack-single-stim,50,113900,0.0-49.0,093075a6-ff43-4260-bc39-5c8a206a6e2e,,500,500,fixation,,<div class = centerbox><div class = fixation>+</div></div>,none,500,practice,,,,,,,,,,,871,66,poldrack-categorize,51,116414,0.0-50.0,093075a6-ff43-4260-bc39-5c8a206a6e2e,,1500,250,stim,,"<div class = centerbox><div class = stroop-stim style = ""color:blue"">BLUE</div></div>","66,71,82",1500,practice,TRUE,66,500,congruent,blue,blue,,,,,5599,13,poldrack-text,52,122268,0.0-52.0,093075a6-ff43-4260-bc39-5c8a206a6e2e,<div class = centerbox><p class = center-block-text>We will now start the test. Respond exactly like you did during practice.</p><p class = center-block-text>Press <strong>enter</strong> to begin the test.</p></div>,5599,1000,test_intro,,,,,,,,,,,,,,,,-1,-1,poldrack-single-stim,53,123777,0.0-53.0,093075a6-ff43-4260-bc39-5c8a206a6e2e,,500,500,fixation,,<div class = centerbox><div class = fixation>+</div></div>,none,500,test,,,,,,,,,,,661,82,poldrack-categorize,54,126283,0.0-54.0,093075a6-ff43-4260-bc39-5c8a206a6e2e,,1500,250,stim,,"<div class = centerbox><div class = stroop-stim style = ""color:red"">GREEN</div></div>","66,71,82",1500,test,TRUE,82,500,incongruent,red,green,,,,,-1,-1,poldrack-single-stim,55,127042,0.0-55.0,093075a6-ff43-4260-bc39-5c8a206a6e2e,,500,500,fixation,,<div class = centerbox><div class = fixation>+</div></div>,none,500,test,,,,,,,,,,,656,82,poldrack-categorize,56,129555,0.0-56.0,093075a6-ff43-4260-bc39-5c8a206a6e2e,,1500,250,stim,,"<div class = centerbox><div class = stroop-stim style = ""color:red"">BLUE</div></div>","66,71,82",1500,test,TRUE,82,500,incongruent,red,blue,,,,,-1,-1,poldrack-single-stim,57,130316,0.0-57.0,093075a6-ff43-4260-bc39-5c8a206a6e2e,,500,500,fixation,,<div class = centerbox><div class = fixation>+</div></div>,none,500,test,,,,,,,,,,,760,66,poldrack-categorize,58,132829,0.0-58.0,093075a6-ff43-4260-bc39-5c8a206a6e2e,,1500,250,stim,,"<div class = centerbox><div class = stroop-stim style = ""color:blue"">BLUE</div></div>","66,71,82",1500,test,TRUE,66,500,congruent,blue,blue,,,,,-1,-1,poldrack-single-stim,59,133590,0.0-59.0,093075a6-ff43-4260-bc39-5c8a206a6e2e,,500,500,fixation,,<div class = centerbox><div class = fixation>+</div></div>,none,500,test,,,,,,,,,,,788,82,poldrack-categorize,60,136103,0.0-60.0,093075a6-ff43-4260-bc39-5c8a206a6e2e,,1500,250,stim,,"<div class = centerbox><div class = stroop-stim style = ""color:red"">BLUE</div></div>","66,71,82",1500,test,TRUE,82,500,incongruent,red,blue,,,,,-1,-1,poldrack-single-stim,61,136863,0.0-61.0,093075a6-ff43-4260-bc39-5c8a206a6e2e,,500,500,fixation,,<div class = centerbox><div class = fixation>+</div></div>,none,500,test,,,,,,,,,,,587,82,poldrack-categorize,62,139377,0.0-62.0,093075a6-ff43-4260-bc39-5c8a206a6e2e,,1500,250,stim,,"<div class = centerbox><div class = stroop-stim style = ""color:red"">BLUE</div></div>","66,71,82",1500,test,TRUE,82,500,incongruent,red,blue,,,,,-1,-1,poldrack-single-stim,63,140137,0.0-63.0,093075a6-ff43-4260-bc39-5c8a206a6e2e,,500,500,fixation,,<div class = centerbox><div class = fixation>+</div></div>,none,500,test,,,,,,,,,,,770,82,poldrack-categorize,64,142650,0.0-64.0,093075a6-ff43-4260-bc39-5c8a206a6e2e,,1500,250,stim,,"<div class = centerbox><div class = stroop-stim style = ""color:red"">GREEN</div></div>","66,71,82",1500,test,TRUE,82,500,incongruent,red,green,,,,,-1,-1,poldrack-single-stim,65,143409,0.0-65.0,093075a6-ff43-4260-bc39-5c8a206a6e2e,,500,500,fixation,,<div class = centerbox><div class = fixation>+</div></div>,none,500,test,,,,,,,,,,,716,71,poldrack-categorize,66,145919,0.0-66.0,093075a6-ff43-4260-bc39-5c8a206a6e2e,,1500,250,stim,,"<div class = centerbox><div class = stroop-stim style = ""color:green"">RED</div></div>","66,71,82",1500,test,TRUE,71,500,incongruent,green,red,,,,,-1,-1,poldrack-single-stim,67,146679,0.0-67.0,093075a6-ff43-4260-bc39-5c8a206a6e2e,,500,500,fixation,,<div class = centerbox><div class = fixation>+</div></div>,none,500,test,,,,,,,,,,,683,71,poldrack-categorize,68,149192,0.0-68.0,093075a6-ff43-4260-bc39-5c8a206a6e2e,,1500,250,stim,,"<div class = centerbox><div class = stroop-stim style = ""color:green"">BLUE</div></div>","66,71,82",1500,test,TRUE,71,500,incongruent,green,blue,,,,,-1,-1,poldrack-single-stim,69,149953,0.0-69.0,093075a6-ff43-4260-bc39-5c8a206a6e2e,,500,500,fixation,,<div class = centerbox><div class = fixation>+</div></div>,none,500,test,,,,,,,,,,,641,71,poldrack-categorize,70,152466,0.0-70.0,093075a6-ff43-4260-bc39-5c8a206a6e2e,,1500,250,stim,,"<div class = centerbox><div class = stroop-stim style = ""color:green"">RED</div></div>","66,71,82",1500,test,TRUE,71,500,incongruent,green,red,,,,,-1,-1,poldrack-single-stim,71,153226,0.0-71.0,093075a6-ff43-4260-bc39-5c8a206a6e2e,,500,500,fixation,,<div class = centerbox><div class = fixation>+</div></div>,none,500,test,,,,,,,,,,,815,82,poldrack-categorize,72,155740,0.0-72.0,093075a6-ff43-4260-bc39-5c8a206a6e2e,,1500,250,stim,,"<div class = centerbox><div class = stroop-stim style = ""color:red"">RED</div></div>","66,71,82",1500,test,TRUE,82,500,congruent,red,red,,,,,-1,-1,poldrack-single-stim,73,156501,0.0-73.0,093075a6-ff43-4260-bc39-5c8a206a6e2e,,500,500,fixation,,<div class = centerbox><div class = fixation>+</div></div>,none,500,test,,,,,,,,,,,652,71,poldrack-categorize,74,159014,0.0-74.0,093075a6-ff43-4260-bc39-5c8a206a6e2e,,1500,250,stim,,"<div class = centerbox><div class = stroop-stim style = ""color:green"">BLUE</div></div>","66,71,82",1500,test,TRUE,71,500,incongruent,green,blue,,,,,-1,-1,poldrack-single-stim,75,159773,0.0-75.0,093075a6-ff43-4260-bc39-5c8a206a6e2e,,500,500,fixation,,<div class = centerbox><div class = fixation>+</div></div>,none,500,test,,,,,,,,,,,641,71,poldrack-categorize,76,162287,0.0-76.0,093075a6-ff43-4260-bc39-5c8a206a6e2e,,1500,250,stim,,"<div class = centerbox><div class = stroop-stim style = ""color:green"">RED</div></div>","66,71,82",1500,test,TRUE,71,500,incongruent,green,red,,,,,-1,-1,poldrack-single-stim,77,163048,0.0-77.0,093075a6-ff43-4260-bc39-5c8a206a6e2e,,500,500,fixation,,<div class = centerbox><div class = fixation>+</div></div>,none,500,test,,,,,,,,,,,768,66,poldrack-categorize,78,165561,0.0-78.0,093075a6-ff43-4260-bc39-5c8a206a6e2e,,1500,250,stim,,"<div class = centerbox><div class = stroop-stim style = ""color:blue"">GREEN</div></div>","66,71,82",1500,test,TRUE,66,500,incongruent,blue,green,,,,,-1,-1,poldrack-single-stim,79,166322,0.0-79.0,093075a6-ff43-4260-bc39-5c8a206a6e2e,,500,500,fixation,,<div class = centerbox><div class = fixation>+</div></div>,none,500,test,,,,,,,,,,,640,82,poldrack-categorize,80,168829,0.0-80.0,093075a6-ff43-4260-bc39-5c8a206a6e2e,,1500,250,stim,,"<div class = centerbox><div class = stroop-stim style = ""color:red"">RED</div></div>","66,71,82",1500,test,TRUE,82,500,congruent,red,red,,,,,-1,-1,poldrack-single-stim,81,169590,0.0-81.0,093075a6-ff43-4260-bc39-5c8a206a6e2e,,500,500,fixation,,<div class = centerbox><div class = fixation>+</div></div>,none,500,test,,,,,,,,,,,770,66,poldrack-categorize,82,172103,0.0-82.0,093075a6-ff43-4260-bc39-5c8a206a6e2e,,1500,250,stim,,"<div class = centerbox><div class = stroop-stim style = ""color:blue"">BLUE</div></div>","66,71,82",1500,test,TRUE,66,500,congruent,blue,blue,,,,,-1,-1,poldrack-single-stim,83,172864,0.0-83.0,093075a6-ff43-4260-bc39-5c8a206a6e2e,,500,500,fixation,,<div class = centerbox><div class = fixation>+</div></div>,none,500,test,,,,,,,,,,,730,66,poldrack-categorize,84,175377,0.0-84.0,093075a6-ff43-4260-bc39-5c8a206a6e2e,,1500,250,stim,,"<div class = centerbox><div class = stroop-stim style = ""color:blue"">RED</div></div>","66,71,82",1500,test,TRUE,66,500,incongruent,blue,red,,,,,-1,-1,poldrack-single-stim,85,176138,0.0-85.0,093075a6-ff43-4260-bc39-5c8a206a6e2e,,500,500,fixation,,<div class = centerbox><div class = fixation>+</div></div>,none,500,test,,,,,,,,,,,734,66,poldrack-categorize,86,178647,0.0-86.0,093075a6-ff43-4260-bc39-5c8a206a6e2e,,1500,250,stim,,"<div class = centerbox><div class = stroop-stim style = ""color:blue"">BLUE</div></div>","66,71,82",1500,test,TRUE,66,500,congruent,blue,blue,,,,,-1,-1,poldrack-single-stim,87,179406,0.0-87.0,093075a6-ff43-4260-bc39-5c8a206a6e2e,,500,500,fixation,,<div class = centerbox><div class = fixation>+</div></div>,none,500,test,,,,,,,,,,,689,71,poldrack-categorize,88,181919,0.0-88.0,093075a6-ff43-4260-bc39-5c8a206a6e2e,,1500,250,stim,,"<div class = centerbox><div class = stroop-stim style = ""color:green"">BLUE</div></div>","66,71,82",1500,test,TRUE,71,500,incongruent,green,blue,,,,,-1,-1,poldrack-single-stim,89,182676,0.0-89.0,093075a6-ff43-4260-bc39-5c8a206a6e2e,,500,500,fixation,,<div class = centerbox><div class = fixation>+</div></div>,none,500,test,,,,,,,,,,,750,66,poldrack-categorize,90,185187,0.0-90.0,093075a6-ff43-4260-bc39-5c8a206a6e2e,,1500,250,stim,,"<div class = centerbox><div class = stroop-stim style = ""color:blue"">RED</div></div>","66,71,82",1500,test,TRUE,66,500,incongruent,blue,red,,,,,-1,-1,poldrack-single-stim,91,185948,0.0-91.0,093075a6-ff43-4260-bc39-5c8a206a6e2e,,500,500,fixation,,<div class = centerbox><div class = fixation>+</div></div>,none,500,test,,,,,,,,,,,653,71,poldrack-categorize,92,188461,0.0-92.0,093075a6-ff43-4260-bc39-5c8a206a6e2e,,1500,250,stim,,"<div class = centerbox><div class = stroop-stim style = ""color:green"">GREEN</div></div>","66,71,82",1500,test,TRUE,71,500,congruent,green,green,,,,,-1,-1,poldrack-single-stim,93,189221,0.0-93.0,093075a6-ff43-4260-bc39-5c8a206a6e2e,,500,500,fixation,,<div class = centerbox><div class = fixation>+</div></div>,none,500,test,,,,,,,,,,,961,66,poldrack-categorize,94,191734,0.0-94.0,093075a6-ff43-4260-bc39-5c8a206a6e2e,,1500,250,stim,,"<div class = centerbox><div class = stroop-stim style = ""color:blue"">RED</div></div>","66,71,82",1500,test,TRUE,66,500,incongruent,blue,red,,,,,-1,-1,poldrack-single-stim,95,192495,0.0-95.0,093075a6-ff43-4260-bc39-5c8a206a6e2e,,500,500,fixation,,<div class = centerbox><div class = fixation>+</div></div>,none,500,test,,,,,,,,,,,641,71,poldrack-categorize,96,195008,0.0-96.0,093075a6-ff43-4260-bc39-5c8a206a6e2e,,1500,250,stim,,"<div class = centerbox><div class = stroop-stim style = ""color:green"">GREEN</div></div>","66,71,82",1500,test,TRUE,71,500,congruent,green,green,,,,,-1,-1,poldrack-single-stim,97,195769,0.0-97.0,093075a6-ff43-4260-bc39-5c8a206a6e2e,,500,500,fixation,,<div class = centerbox><div class = fixation>+</div></div>,none,500,test,,,,,,,,,,,759,82,poldrack-categorize,98,198282,0.0-98.0,093075a6-ff43-4260-bc39-5c8a206a6e2e,,1500,250,stim,,"<div class = centerbox><div class = stroop-stim style = ""color:red"">GREEN</div></div>","66,71,82",1500,test,TRUE,82,500,incongruent,red,green,,,,,-1,-1,poldrack-single-stim,99,199043,0.0-99.0,093075a6-ff43-4260-bc39-5c8a206a6e2e,,500,500,fixation,,<div class = centerbox><div class = fixation>+</div></div>,none,500,test,,,,,,,,,,,805,66,poldrack-categorize,100,201553,0.0-100.0,093075a6-ff43-4260-bc39-5c8a206a6e2e,,1500,250,stim,,"<div class = centerbox><div class = stroop-stim style = ""color:blue"">BLUE</div></div>","66,71,82",1500,test,TRUE,66,500,congruent,blue,blue,,,,,-1,-1,poldrack-single-stim,101,202311,0.0-101.0,093075a6-ff43-4260-bc39-5c8a206a6e2e,,500,500,fixation,,<div class = centerbox><div class = fixation>+</div></div>,none,500,test,,,,,,,,,,,807,82,poldrack-categorize,102,204820,0.0-102.0,093075a6-ff43-4260-bc39-5c8a206a6e2e,,1500,250,stim,,"<div class = centerbox><div class = stroop-stim style = ""color:red"">GREEN</div></div>","66,71,82",1500,test,TRUE,82,500,incongruent,red,green,,,,,-1,-1,poldrack-single-stim,103,205579,0.0-103.0,093075a6-ff43-4260-bc39-5c8a206a6e2e,,500,500,fixation,,<div class = centerbox><div class = fixation>+</div></div>,none,500,test,,,,,,,,,,,899,82,poldrack-categorize,104,208092,0.0-104.0,093075a6-ff43-4260-bc39-5c8a206a6e2e,,1500,250,stim,,"<div class = centerbox><div class = stroop-stim style = ""color:red"">GREEN</div></div>","66,71,82",1500,test,TRUE,82,500,incongruent,red,green,,,,,-1,-1,poldrack-single-stim,105,208852,0.0-105.0,093075a6-ff43-4260-bc39-5c8a206a6e2e,,500,500,fixation,,<div class = centerbox><div class = fixation>+</div></div>,none,500,test,,,,,,,,,,,883,66,poldrack-categorize,106,211366,0.0-106.0,093075a6-ff43-4260-bc39-5c8a206a6e2e,,1500,250,stim,,"<div class = centerbox><div class = stroop-stim style = ""color:blue"">BLUE</div></div>","66,71,82",1500,test,TRUE,66,500,congruent,blue,blue,,,,,-1,-1,poldrack-single-stim,107,212126,0.0-107.0,093075a6-ff43-4260-bc39-5c8a206a6e2e,,500,500,fixation,,<div class = centerbox><div class = fixation>+</div></div>,none,500,test,,,,,,,,,,,817,82,poldrack-categorize,108,214639,0.0-108.0,093075a6-ff43-4260-bc39-5c8a206a6e2e,,1500,250,stim,,"<div class = centerbox><div class = stroop-stim style = ""color:red"">GREEN</div></div>","66,71,82",1500,test,TRUE,82,500,incongruent,red,green,,,,,-1,-1,poldrack-single-stim,109,215400,0.0-109.0,093075a6-ff43-4260-bc39-5c8a206a6e2e,,500,500,fixation,,<div class = centerbox><div class = fixation>+</div></div>,none,500,test,,,,,,,,,,,790,66,poldrack-categorize,110,217913,0.0-110.0,093075a6-ff43-4260-bc39-5c8a206a6e2e,,1500,250,stim,,"<div class = centerbox><div class = stroop-stim style = ""color:blue"">BLUE</div></div>","66,71,82",1500,test,TRUE,66,500,congruent,blue,blue,,,,,-1,-1,poldrack-single-stim,111,218674,0.0-111.0,093075a6-ff43-4260-bc39-5c8a206a6e2e,,500,500,fixation,,<div class = centerbox><div class = fixation>+</div></div>,none,500,test,,,,,,,,,,,733,66,poldrack-categorize,112,221187,0.0-112.0,093075a6-ff43-4260-bc39-5c8a206a6e2e,,1500,250,stim,,"<div class = centerbox><div class = stroop-stim style = ""color:blue"">BLUE</div></div>","66,71,82",1500,test,TRUE,66,500,congruent,blue,blue,,,,,-1,-1,poldrack-single-stim,113,221948,0.0-113.0,093075a6-ff43-4260-bc39-5c8a206a6e2e,,500,500,fixation,,<div class = centerbox><div class = fixation>+</div></div>,none,500,test,,,,,,,,,,,650,66,poldrack-categorize,114,224461,0.0-114.0,093075a6-ff43-4260-bc39-5c8a206a6e2e,,1500,250,stim,,"<div class = centerbox><div class = stroop-stim style = ""color:blue"">BLUE</div></div>","66,71,82",1500,test,TRUE,66,500,congruent,blue,blue,,,,,-1,-1,poldrack-single-stim,115,225222,0.0-115.0,093075a6-ff43-4260-bc39-5c8a206a6e2e,,500,500,fixation,,<div class = centerbox><div class = fixation>+</div></div>,none,500,test,,,,,,,,,,,798,82,poldrack-categorize,116,227735,0.0-116.0,093075a6-ff43-4260-bc39-5c8a206a6e2e,,1500,250,stim,,"<div class = centerbox><div class = stroop-stim style = ""color:red"">RED</div></div>","66,71,82",1500,test,TRUE,82,500,congruent,red,red,,,,,-1,-1,poldrack-single-stim,117,228495,0.0-117.0,093075a6-ff43-4260-bc39-5c8a206a6e2e,,500,500,fixation,,<div class = centerbox><div class = fixation>+</div></div>,none,500,test,,,,,,,,,,,734,82,poldrack-categorize,118,231009,0.0-118.0,093075a6-ff43-4260-bc39-5c8a206a6e2e,,1500,250,stim,,"<div class = centerbox><div class = stroop-stim style = ""color:red"">RED</div></div>","66,71,82",1500,test,TRUE,82,500,congruent,red,red,,,,,-1,-1,poldrack-single-stim,119,231769,0.0-119.0,093075a6-ff43-4260-bc39-5c8a206a6e2e,,500,500,fixation,,<div class = centerbox><div class = fixation>+</div></div>,none,500,test,,,,,,,,,,,668,71,poldrack-categorize,120,234282,0.0-120.0,093075a6-ff43-4260-bc39-5c8a206a6e2e,,1500,250,stim,,"<div class = centerbox><div class = stroop-stim style = ""color:green"">GREEN</div></div>","66,71,82",1500,test,TRUE,71,500,congruent,green,green,,,,,-1,-1,poldrack-single-stim,121,235043,0.0-121.0,093075a6-ff43-4260-bc39-5c8a206a6e2e,,500,500,fixation,,<div class = centerbox><div class = fixation>+</div></div>,none,500,test,,,,,,,,,,,658,71,poldrack-categorize,122,237556,0.0-122.0,093075a6-ff43-4260-bc39-5c8a206a6e2e,,1500,250,stim,,"<div class = centerbox><div class = stroop-stim style = ""color:green"">GREEN</div></div>","66,71,82",1500,test,TRUE,71,500,congruent,green,green,,,,,-1,-1,poldrack-single-stim,123,238317,0.0-123.0,093075a6-ff43-4260-bc39-5c8a206a6e2e,,500,500,fixation,,<div class = centerbox><div class = fixation>+</div></div>,none,500,test,,,,,,,,,,,800,66,poldrack-categorize,124,240830,0.0-124.0,093075a6-ff43-4260-bc39-5c8a206a6e2e,,1500,250,stim,,"<div class = centerbox><div class = stroop-stim style = ""color:blue"">BLUE</div></div>","66,71,82",1500,test,TRUE,66,500,congruent,blue,blue,,,,,-1,-1,poldrack-single-stim,125,241590,0.0-125.0,093075a6-ff43-4260-bc39-5c8a206a6e2e,,500,500,fixation,,<div class = centerbox><div class = fixation>+</div></div>,none,500,test,,,,,,,,,,,767,82,poldrack-categorize,126,244104,0.0-126.0,093075a6-ff43-4260-bc39-5c8a206a6e2e,,1500,250,stim,,"<div class = centerbox><div class = stroop-stim style = ""color:red"">RED</div></div>","66,71,82",1500,test,TRUE,82,500,congruent,red,red,,,,,-1,-1,poldrack-single-stim,127,244864,0.0-127.0,093075a6-ff43-4260-bc39-5c8a206a6e2e,,500,500,fixation,,<div class = centerbox><div class = fixation>+</div></div>,none,500,test,,,,,,,,,,,861,82,poldrack-categorize,128,247378,0.0-128.0,093075a6-ff43-4260-bc39-5c8a206a6e2e,,1500,250,stim,,"<div class = centerbox><div class = stroop-stim style = ""color:red"">RED</div></div>","66,71,82",1500,test,TRUE,82,500,congruent,red,red,,,,,-1,-1,poldrack-single-stim,129,248138,0.0-129.0,093075a6-ff43-4260-bc39-5c8a206a6e2e,,500,500,fixation,,<div class = centerbox><div class = fixation>+</div></div>,none,500,test,,,,,,,,,,,786,82,poldrack-categorize,130,250647,0.0-130.0,093075a6-ff43-4260-bc39-5c8a206a6e2e,,1500,250,stim,,"<div class = centerbox><div class = stroop-stim style = ""color:red"">RED</div></div>","66,71,82",1500,test,TRUE,82,500,congruent,red,red,,,,,-1,-1,poldrack-single-stim,131,251403,0.0-131.0,093075a6-ff43-4260-bc39-5c8a206a6e2e,,500,500,fixation,,<div class = centerbox><div class = fixation>+</div></div>,none,500,test,,,,,,,,,,,1042,66,poldrack-categorize,132,253914,0.0-132.0,093075a6-ff43-4260-bc39-5c8a206a6e2e,,1500,250,stim,,"<div class = centerbox><div class = stroop-stim style = ""color:blue"">BLUE</div></div>","66,71,82",1500,test,TRUE,66,500,congruent,blue,blue,,,,,-1,-1,poldrack-single-stim,133,254674,0.0-133.0,093075a6-ff43-4260-bc39-5c8a206a6e2e,,500,500,fixation,,<div class = centerbox><div class = fixation>+</div></div>,none,500,test,,,,,,,,,,,762,82,poldrack-categorize,134,257186,0.0-134.0,093075a6-ff43-4260-bc39-5c8a206a6e2e,,1500,250,stim,,"<div class = centerbox><div class = stroop-stim style = ""color:red"">RED</div></div>","66,71,82",1500,test,TRUE,82,500,congruent,red,red,,,,,-1,-1,poldrack-single-stim,135,257942,0.0-135.0,093075a6-ff43-4260-bc39-5c8a206a6e2e,,500,500,fixation,,<div class = centerbox><div class = fixation>+</div></div>,none,500,test,,,,,,,,,,,780,71,poldrack-categorize,136,260455,0.0-136.0,093075a6-ff43-4260-bc39-5c8a206a6e2e,,1500,250,stim,,"<div class = centerbox><div class = stroop-stim style = ""color:green"">GREEN</div></div>","66,71,82",1500,test,TRUE,71,500,congruent,green,green,,,,,-1,-1,poldrack-single-stim,137,261210,0.0-137.0,093075a6-ff43-4260-bc39-5c8a206a6e2e,,500,500,fixation,,<div class = centerbox><div class = fixation>+</div></div>,none,500,test,,,,,,,,,,,751,71,poldrack-categorize,138,263718,0.0-138.0,093075a6-ff43-4260-bc39-5c8a206a6e2e,,1500,250,stim,,"<div class = centerbox><div class = stroop-stim style = ""color:green"">GREEN</div></div>","66,71,82",1500,test,TRUE,71,500,congruent,green,green,,,,,-1,-1,poldrack-single-stim,139,264478,0.0-139.0,093075a6-ff43-4260-bc39-5c8a206a6e2e,,500,500,fixation,,<div class = centerbox><div class = fixation>+</div></div>,none,500,test,,,,,,,,,,,692,71,poldrack-categorize,140,266991,0.0-140.0,093075a6-ff43-4260-bc39-5c8a206a6e2e,,1500,250,stim,,"<div class = centerbox><div class = stroop-stim style = ""color:green"">GREEN</div></div>","66,71,82",1500,test,TRUE,71,500,congruent,green,green,,,,,-1,-1,poldrack-single-stim,141,267748,0.0-141.0,093075a6-ff43-4260-bc39-5c8a206a6e2e,,500,500,fixation,,<div class = centerbox><div class = fixation>+</div></div>,none,500,test,,,,,,,,,,,727,66,poldrack-categorize,142,270259,0.0-142.0,093075a6-ff43-4260-bc39-5c8a206a6e2e,,1500,250,stim,,"<div class = centerbox><div class = stroop-stim style = ""color:blue"">BLUE</div></div>","66,71,82",1500,test,TRUE,66,500,congruent,blue,blue,,,,,-1,-1,poldrack-single-stim,143,271020,0.0-143.0,093075a6-ff43-4260-bc39-5c8a206a6e2e,,500,500,fixation,,<div class = centerbox><div class = fixation>+</div></div>,none,500,test,,,,,,,,,,,727,71,poldrack-categorize,144,273533,0.0-144.0,093075a6-ff43-4260-bc39-5c8a206a6e2e,,1500,250,stim,,"<div class = centerbox><div class = stroop-stim style = ""color:green"">GREEN</div></div>","66,71,82",1500,test,TRUE,71,500,congruent,green,green,,,,,-1,-1,poldrack-single-stim,145,274294,0.0-145.0,093075a6-ff43-4260-bc39-5c8a206a6e2e,,500,500,fixation,,<div class = centerbox><div class = fixation>+</div></div>,none,500,test,,,,,,,,,,,915,66,poldrack-categorize,146,276807,0.0-146.0,093075a6-ff43-4260-bc39-5c8a206a6e2e,,1500,250,stim,,"<div class = centerbox><div class = stroop-stim style = ""color:blue"">GREEN</div></div>","66,71,82",1500,test,TRUE,66,500,incongruent,blue,green,,,,,-1,-1,poldrack-single-stim,147,277568,0.0-147.0,093075a6-ff43-4260-bc39-5c8a206a6e2e,,500,500,fixation,,<div class = centerbox><div class = fixation>+</div></div>,none,500,test,,,,,,,,,,,713,71,poldrack-categorize,148,280081,0.0-148.0,093075a6-ff43-4260-bc39-5c8a206a6e2e,,1500,250,stim,,"<div class = centerbox><div class = stroop-stim style = ""color:green"">GREEN</div></div>","66,71,82",1500,test,TRUE,71,500,congruent,green,green,,,,,-1,-1,poldrack-single-stim,149,280842,0.0-149.0,093075a6-ff43-4260-bc39-5c8a206a6e2e,,500,500,fixation,,<div class = centerbox><div class = fixation>+</div></div>,none,500,test,,,,,,,,,,,848,66,poldrack-categorize,150,283355,0.0-150.0,093075a6-ff43-4260-bc39-5c8a206a6e2e,,1500,250,stim,,"<div class = centerbox><div class = stroop-stim style = ""color:blue"">RED</div></div>","66,71,82",1500,test,TRUE,66,500,incongruent,blue,red,,,,,-1,-1,poldrack-single-stim,151,284115,0.0-151.0,093075a6-ff43-4260-bc39-5c8a206a6e2e,,500,500,fixation,,<div class = centerbox><div class = fixation>+</div></div>,none,500,test,,,,,,,,,,,728,71,poldrack-categorize,152,286630,0.0-152.0,093075a6-ff43-4260-bc39-5c8a206a6e2e,,1500,250,stim,,"<div class = centerbox><div class = stroop-stim style = ""color:green"">GREEN</div></div>","66,71,82",1500,test,TRUE,71,500,congruent,green,green,,,,,-1,-1,poldrack-single-stim,153,287389,0.0-153.0,093075a6-ff43-4260-bc39-5c8a206a6e2e,,500,500,fixation,,<div class = centerbox><div class = fixation>+</div></div>,none,500,test,,,,,,,,,,,1131,71,poldrack-categorize,154,289902,0.0-154.0,093075a6-ff43-4260-bc39-5c8a206a6e2e,,1500,250,stim,,"<div class = centerbox><div class = stroop-stim style = ""color:green"">RED</div></div>","66,71,82",1500,test,TRUE,71,500,incongruent,green,red,,,,,-1,-1,poldrack-single-stim,155,290663,0.0-155.0,093075a6-ff43-4260-bc39-5c8a206a6e2e,,500,500,fixation,,<div class = centerbox><div class = fixation>+</div></div>,none,500,test,,,,,,,,,,,819,66,poldrack-categorize,156,293176,0.0-156.0,093075a6-ff43-4260-bc39-5c8a206a6e2e,,1500,250,stim,,"<div class = centerbox><div class = stroop-stim style = ""color:blue"">GREEN</div></div>","66,71,82",1500,test,TRUE,66,500,incongruent,blue,green,,,,,-1,-1,poldrack-single-stim,157,293937,0.0-157.0,093075a6-ff43-4260-bc39-5c8a206a6e2e,,500,500,fixation,,<div class = centerbox><div class = fixation>+</div></div>,none,500,test,,,,,,,,,,,1360,66,poldrack-categorize,158,296446,0.0-158.0,093075a6-ff43-4260-bc39-5c8a206a6e2e,,1500,250,stim,,"<div class = centerbox><div class = stroop-stim style = ""color:blue"">BLUE</div></div>","66,71,82",1500,test,TRUE,66,500,congruent,blue,blue,,,,,-1,-1,poldrack-single-stim,159,297205,0.0-159.0,093075a6-ff43-4260-bc39-5c8a206a6e2e,,500,500,fixation,,<div class = centerbox><div class = fixation>+</div></div>,none,500,test,,,,,,,,,,,891,82,poldrack-categorize,160,299712,0.0-160.0,093075a6-ff43-4260-bc39-5c8a206a6e2e,,1500,250,stim,,"<div class = centerbox><div class = stroop-stim style = ""color:red"">BLUE</div></div>","66,71,82",1500,test,TRUE,82,500,incongruent,red,blue,,,,,-1,-1,poldrack-single-stim,161,300473,0.0-161.0,093075a6-ff43-4260-bc39-5c8a206a6e2e,,500,500,fixation,,<div class = centerbox><div class = fixation>+</div></div>,none,500,test,,,,,,,,,,,774,82,poldrack-categorize,162,302986,0.0-162.0,093075a6-ff43-4260-bc39-5c8a206a6e2e,,1500,250,stim,,"<div class = centerbox><div class = stroop-stim style = ""color:red"">GREEN</div></div>","66,71,82",1500,test,TRUE,82,500,incongruent,red,green,,,,,-1,-1,poldrack-single-stim,163,303747,0.0-163.0,093075a6-ff43-4260-bc39-5c8a206a6e2e,,500,500,fixation,,<div class = centerbox><div class = fixation>+</div></div>,none,500,test,,,,,,,,,,,695,66,poldrack-categorize,164,306260,0.0-164.0,093075a6-ff43-4260-bc39-5c8a206a6e2e,,1500,250,stim,,"<div class = centerbox><div class = stroop-stim style = ""color:blue"">BLUE</div></div>","66,71,82",1500,test,TRUE,66,500,congruent,blue,blue,,,,,-1,-1,poldrack-single-stim,165,307020,0.0-165.0,093075a6-ff43-4260-bc39-5c8a206a6e2e,,500,500,fixation,,<div class = centerbox><div class = fixation>+</div></div>,none,500,test,,,,,,,,,,,811,82,poldrack-categorize,166,309534,0.0-166.0,093075a6-ff43-4260-bc39-5c8a206a6e2e,,1500,250,stim,,"<div class = centerbox><div class = stroop-stim style = ""color:red"">BLUE</div></div>","66,71,82",1500,test,TRUE,82,500,incongruent,red,blue,,,,,-1,-1,poldrack-single-stim,167,310294,0.0-167.0,093075a6-ff43-4260-bc39-5c8a206a6e2e,,500,500,fixation,,<div class = centerbox><div class = fixation>+</div></div>,none,500,test,,,,,,,,,,,778,66,poldrack-categorize,168,312807,0.0-168.0,093075a6-ff43-4260-bc39-5c8a206a6e2e,,1500,250,stim,,"<div class = centerbox><div class = stroop-stim style = ""color:blue"">RED</div></div>","66,71,82",1500,test,TRUE,66,500,incongruent,blue,red,,,,,-1,-1,poldrack-single-stim,169,313568,0.0-169.0,093075a6-ff43-4260-bc39-5c8a206a6e2e,,500,500,fixation,,<div class = centerbox><div class = fixation>+</div></div>,none,500,test,,,,,,,,,,,675,66,poldrack-categorize,170,316075,0.0-170.0,093075a6-ff43-4260-bc39-5c8a206a6e2e,,1500,250,stim,,"<div class = centerbox><div class = stroop-stim style = ""color:blue"">RED</div></div>","66,71,82",1500,test,TRUE,66,500,incongruent,blue,red,,,,,-1,-1,poldrack-single-stim,171,316836,0.0-171.0,093075a6-ff43-4260-bc39-5c8a206a6e2e,,500,500,fixation,,<div class = centerbox><div class = fixation>+</div></div>,none,500,test,,,,,,,,,,,748,71,poldrack-categorize,172,319345,0.0-172.0,093075a6-ff43-4260-bc39-5c8a206a6e2e,,1500,250,stim,,"<div class = centerbox><div class = stroop-stim style = ""color:green"">BLUE</div></div>","66,71,82",1500,test,TRUE,71,500,incongruent,green,blue,,,,,-1,-1,poldrack-single-stim,173,320104,0.0-173.0,093075a6-ff43-4260-bc39-5c8a206a6e2e,,500,500,fixation,,<div class = centerbox><div class = fixation>+</div></div>,none,500,test,,,,,,,,,,,702,71,poldrack-categorize,174,322617,0.0-174.0,093075a6-ff43-4260-bc39-5c8a206a6e2e,,1500,250,stim,,"<div class = centerbox><div class = stroop-stim style = ""color:green"">RED</div></div>","66,71,82",1500,test,TRUE,71,500,incongruent,green,red,,,,,-1,-1,poldrack-single-stim,175,323378,0.0-175.0,093075a6-ff43-4260-bc39-5c8a206a6e2e,,500,500,fixation,,<div class = centerbox><div class = fixation>+</div></div>,none,500,test,,,,,,,,,,,960,66,poldrack-categorize,176,325885,0.0-176.0,093075a6-ff43-4260-bc39-5c8a206a6e2e,,1500,250,stim,,"<div class = centerbox><div class = stroop-stim style = ""color:blue"">GREEN</div></div>","66,71,82",1500,test,TRUE,66,500,incongruent,blue,green,,,,,-1,-1,poldrack-single-stim,177,326640,0.0-177.0,093075a6-ff43-4260-bc39-5c8a206a6e2e,,500,500,fixation,,<div class = centerbox><div class = fixation>+</div></div>,none,500,test,,,,,,,,,,,733,82,poldrack-categorize,178,329153,0.0-178.0,093075a6-ff43-4260-bc39-5c8a206a6e2e,,1500,250,stim,,"<div class = centerbox><div class = stroop-stim style = ""color:red"">RED</div></div>","66,71,82",1500,test,TRUE,82,500,congruent,red,red,,,,,-1,-1,poldrack-single-stim,179,329914,0.0-179.0,093075a6-ff43-4260-bc39-5c8a206a6e2e,,500,500,fixation,,<div class = centerbox><div class = fixation>+</div></div>,none,500,test,,,,,,,,,,,845,66,poldrack-categorize,180,332427,0.0-180.0,093075a6-ff43-4260-bc39-5c8a206a6e2e,,1500,250,stim,,"<div class = centerbox><div class = stroop-stim style = ""color:blue"">GREEN</div></div>","66,71,82",1500,test,TRUE,66,500,incongruent,blue,green,,,,,-1,-1,poldrack-single-stim,181,333182,0.0-181.0,093075a6-ff43-4260-bc39-5c8a206a6e2e,,500,500,fixation,,<div class = centerbox><div class = fixation>+</div></div>,none,500,test,,,,,,,,,,,808,71,poldrack-categorize,182,335695,0.0-182.0,093075a6-ff43-4260-bc39-5c8a206a6e2e,,1500,250,stim,,"<div class = centerbox><div class = stroop-stim style = ""color:green"">BLUE</div></div>","66,71,82",1500,test,TRUE,71,500,incongruent,green,blue,,,,,-1,-1,poldrack-single-stim,183,336456,0.0-183.0,093075a6-ff43-4260-bc39-5c8a206a6e2e,,500,500,fixation,,<div class = centerbox><div class = fixation>+</div></div>,none,500,test,,,,,,,,,,,640,71,poldrack-categorize,184,338969,0.0-184.0,093075a6-ff43-4260-bc39-5c8a206a6e2e,,1500,250,stim,,"<div class = centerbox><div class = stroop-stim style = ""color:green"">BLUE</div></div>","66,71,82",1500,test,TRUE,71,500,incongruent,green,blue,,,,,-1,-1,poldrack-single-stim,185,339729,0.0-185.0,093075a6-ff43-4260-bc39-5c8a206a6e2e,,500,500,fixation,,<div class = centerbox><div class = fixation>+</div></div>,none,500,test,,,,,,,,,,,877,66,poldrack-categorize,186,342243,0.0-186.0,093075a6-ff43-4260-bc39-5c8a206a6e2e,,1500,250,stim,,"<div class = centerbox><div class = stroop-stim style = ""color:blue"">RED</div></div>","66,71,82",1500,test,TRUE,66,500,incongruent,blue,red,,,,,-1,-1,poldrack-single-stim,187,343003,0.0-187.0,093075a6-ff43-4260-bc39-5c8a206a6e2e,,500,500,fixation,,<div class = centerbox><div class = fixation>+</div></div>,none,500,test,,,,,,,,,,,780,82,poldrack-categorize,188,345516,0.0-188.0,093075a6-ff43-4260-bc39-5c8a206a6e2e,,1500,250,stim,,"<div class = centerbox><div class = stroop-stim style = ""color:red"">RED</div></div>","66,71,82",1500,test,TRUE,82,500,congruent,red,red,,,,,-1,-1,poldrack-single-stim,189,346277,0.0-189.0,093075a6-ff43-4260-bc39-5c8a206a6e2e,,500,500,fixation,,<div class = centerbox><div class = fixation>+</div></div>,none,500,test,,,,,,,,,,,888,82,poldrack-categorize,190,348790,0.0-190.0,093075a6-ff43-4260-bc39-5c8a206a6e2e,,1500,250,stim,,"<div class = centerbox><div class = stroop-stim style = ""color:red"">RED</div></div>","66,71,82",1500,test,TRUE,82,500,congruent,red,red,,,,,-1,-1,poldrack-single-stim,191,349551,0.0-191.0,093075a6-ff43-4260-bc39-5c8a206a6e2e,,500,500,fixation,,<div class = centerbox><div class = fixation>+</div></div>,none,500,test,,,,,,,,,,,711,71,poldrack-categorize,192,352064,0.0-192.0,093075a6-ff43-4260-bc39-5c8a206a6e2e,,1500,250,stim,,"<div class = centerbox><div class = stroop-stim style = ""color:green"">RED</div></div>","66,71,82",1500,test,TRUE,71,500,incongruent,green,red,,,,,-1,-1,poldrack-single-stim,193,352825,0.0-193.0,093075a6-ff43-4260-bc39-5c8a206a6e2e,,500,500,fixation,,<div class = centerbox><div class = fixation>+</div></div>,none,500,test,,,,,,,,,,,685,66,poldrack-categorize,194,355338,0.0-194.0,093075a6-ff43-4260-bc39-5c8a206a6e2e,,1500,250,stim,,"<div class = centerbox><div class = stroop-stim style = ""color:blue"">BLUE</div></div>","66,71,82",1500,test,TRUE,66,500,congruent,blue,blue,,,,,-1,-1,poldrack-single-stim,195,356099,0.0-195.0,093075a6-ff43-4260-bc39-5c8a206a6e2e,,500,500,fixation,,<div class = centerbox><div class = fixation>+</div></div>,none,500,test,,,,,,,,,,,1004,82,poldrack-categorize,196,358606,0.0-196.0,093075a6-ff43-4260-bc39-5c8a206a6e2e,,1500,250,stim,,"<div class = centerbox><div class = stroop-stim style = ""color:red"">GREEN</div></div>","66,71,82",1500,test,TRUE,82,500,incongruent,red,green,,,,,-1,-1,poldrack-single-stim,197,359363,0.0-197.0,093075a6-ff43-4260-bc39-5c8a206a6e2e,,500,500,fixation,,<div class = centerbox><div class = fixation>+</div></div>,none,500,test,,,,,,,,,,,740,82,poldrack-categorize,198,361874,0.0-198.0,093075a6-ff43-4260-bc39-5c8a206a6e2e,,1500,250,stim,,"<div class = centerbox><div class = stroop-stim style = ""color:red"">RED</div></div>","66,71,82",1500,test,TRUE,82,500,congruent,red,red,,,,,-1,-1,poldrack-single-stim,199,362634,0.0-199.0,093075a6-ff43-4260-bc39-5c8a206a6e2e,,500,500,fixation,,<div class = centerbox><div class = fixation>+</div></div>,none,500,test,,,,,,,,,,,947,82,poldrack-categorize,200,365142,0.0-200.0,093075a6-ff43-4260-bc39-5c8a206a6e2e,,1500,250,stim,,"<div class = centerbox><div class = stroop-stim style = ""color:red"">RED</div></div>","66,71,82",1500,test,TRUE,82,500,congruent,red,red,,,,,-1,-1,poldrack-single-stim,201,365903,0.0-201.0,093075a6-ff43-4260-bc39-5c8a206a6e2e,,500,500,fixation,,<div class = centerbox><div class = fixation>+</div></div>,none,500,test,,,,,,,,,,,717,82,poldrack-categorize,202,368416,0.0-202.0,093075a6-ff43-4260-bc39-5c8a206a6e2e,,1500,250,stim,,"<div class = centerbox><div class = stroop-stim style = ""color:red"">BLUE</div></div>","66,71,82",1500,test,TRUE,82,500,incongruent,red,blue,,,,,-1,-1,poldrack-single-stim,203,369176,0.0-203.0,093075a6-ff43-4260-bc39-5c8a206a6e2e,,500,500,fixation,,<div class = centerbox><div class = fixation>+</div></div>,none,500,test,,,,,,,,,,,708,71,poldrack-categorize,204,371690,0.0-204.0,093075a6-ff43-4260-bc39-5c8a206a6e2e,,1500,250,stim,,"<div class = centerbox><div class = stroop-stim style = ""color:green"">GREEN</div></div>","66,71,82",1500,test,TRUE,71,500,congruent,green,green,,,,,-1,-1,poldrack-single-stim,205,372450,0.0-205.0,093075a6-ff43-4260-bc39-5c8a206a6e2e,,500,500,fixation,,<div class = centerbox><div class = fixation>+</div></div>,none,500,test,,,,,,,,,,,882,82,poldrack-categorize,206,374958,0.0-206.0,093075a6-ff43-4260-bc39-5c8a206a6e2e,,1500,250,stim,,"<div class = centerbox><div class = stroop-stim style = ""color:red"">RED</div></div>","66,71,82",1500,test,TRUE,82,500,congruent,red,red,,,,,-1,-1,poldrack-single-stim,207,375718,0.0-207.0,093075a6-ff43-4260-bc39-5c8a206a6e2e,,500,500,fixation,,<div class = centerbox><div class = fixation>+</div></div>,none,500,test,,,,,,,,,,,756,66,poldrack-categorize,208,378231,0.0-208.0,093075a6-ff43-4260-bc39-5c8a206a6e2e,,1500,250,stim,,"<div class = centerbox><div class = stroop-stim style = ""color:blue"">RED</div></div>","66,71,82",1500,test,TRUE,66,500,incongruent,blue,red,,,,,-1,-1,poldrack-single-stim,209,378990,0.0-209.0,093075a6-ff43-4260-bc39-5c8a206a6e2e,,500,500,fixation,,<div class = centerbox><div class = fixation>+</div></div>,none,500,test,,,,,,,,,,,764,71,poldrack-categorize,210,381505,0.0-210.0,093075a6-ff43-4260-bc39-5c8a206a6e2e,,1500,250,stim,,"<div class = centerbox><div class = stroop-stim style = ""color:green"">RED</div></div>","66,71,82",1500,test,TRUE,71,500,incongruent,green,red,,,,,-1,-1,poldrack-single-stim,211,382266,0.0-211.0,093075a6-ff43-4260-bc39-5c8a206a6e2e,,500,500,fixation,,<div class = centerbox><div class = fixation>+</div></div>,none,500,test,,,,,,,,,,,818,71,poldrack-categorize,212,384779,0.0-212.0,093075a6-ff43-4260-bc39-5c8a206a6e2e,,1500,250,stim,,"<div class = centerbox><div class = stroop-stim style = ""color:green"">BLUE</div></div>","66,71,82",1500,test,TRUE,71,500,incongruent,green,blue,,,,,-1,-1,poldrack-single-stim,213,385540,0.0-213.0,093075a6-ff43-4260-bc39-5c8a206a6e2e,,500,500,fixation,,<div class = centerbox><div class = fixation>+</div></div>,none,500,test,,,,,,,,,,,857,66,poldrack-categorize,214,388053,0.0-214.0,093075a6-ff43-4260-bc39-5c8a206a6e2e,,1500,250,stim,,"<div class = centerbox><div class = stroop-stim style = ""color:blue"">GREEN</div></div>","66,71,82",1500,test,TRUE,66,500,incongruent,blue,green,,,,,-1,-1,poldrack-single-stim,215,388813,0.0-215.0,093075a6-ff43-4260-bc39-5c8a206a6e2e,,500,500,fixation,,<div class = centerbox><div class = fixation>+</div></div>,none,500,test,,,,,,,,,,,694,71,poldrack-categorize,216,391327,0.0-216.0,093075a6-ff43-4260-bc39-5c8a206a6e2e,,1500,250,stim,,"<div class = centerbox><div class = stroop-stim style = ""color:green"">BLUE</div></div>","66,71,82",1500,test,TRUE,71,500,incongruent,green,blue,,,,,-1,-1,poldrack-single-stim,217,392087,0.0-217.0,093075a6-ff43-4260-bc39-5c8a206a6e2e,,500,500,fixation,,<div class = centerbox><div class = fixation>+</div></div>,none,500,test,,,,,,,,,,,876,66,poldrack-categorize,218,394601,0.0-218.0,093075a6-ff43-4260-bc39-5c8a206a6e2e,,1500,250,stim,,"<div class = centerbox><div class = stroop-stim style = ""color:blue"">BLUE</div></div>","66,71,82",1500,test,TRUE,66,500,congruent,blue,blue,,,,,-1,-1,poldrack-single-stim,219,395358,0.0-219.0,093075a6-ff43-4260-bc39-5c8a206a6e2e,,500,500,fixation,,<div class = centerbox><div class = fixation>+</div></div>,none,500,test,,,,,,,,,,,739,66,poldrack-categorize,220,397868,0.0-220.0,093075a6-ff43-4260-bc39-5c8a206a6e2e,,1500,250,stim,,"<div class = centerbox><div class = stroop-stim style = ""color:blue"">BLUE</div></div>","66,71,82",1500,test,TRUE,66,500,congruent,blue,blue,,,,,-1,-1,poldrack-single-stim,221,398629,0.0-221.0,093075a6-ff43-4260-bc39-5c8a206a6e2e,,500,500,fixation,,<div class = centerbox><div class = fixation>+</div></div>,none,500,test,,,,,,,,,,,798,71,poldrack-categorize,222,401142,0.0-222.0,093075a6-ff43-4260-bc39-5c8a206a6e2e,,1500,250,stim,,"<div class = centerbox><div class = stroop-stim style = ""color:green"">GREEN</div></div>","66,71,82",1500,test,TRUE,71,500,congruent,green,green,,,,,-1,-1,poldrack-single-stim,223,401903,0.0-223.0,093075a6-ff43-4260-bc39-5c8a206a6e2e,,500,500,fixation,,<div class = centerbox><div class = fixation>+</div></div>,none,500,test,,,,,,,,,,,666,71,poldrack-categorize,224,404416,0.0-224.0,093075a6-ff43-4260-bc39-5c8a206a6e2e,,1500,250,stim,,"<div class = centerbox><div class = stroop-stim style = ""color:green"">GREEN</div></div>","66,71,82",1500,test,TRUE,71,500,congruent,green,green,,,,,-1,-1,poldrack-single-stim,225,405173,0.0-225.0,093075a6-ff43-4260-bc39-5c8a206a6e2e,,500,500,fixation,,<div class = centerbox><div class = fixation>+</div></div>,none,500,test,,,,,,,,,,,757,66,poldrack-categorize,226,407684,0.0-226.0,093075a6-ff43-4260-bc39-5c8a206a6e2e,,1500,250,stim,,"<div class = centerbox><div class = stroop-stim style = ""color:blue"">GREEN</div></div>","66,71,82",1500,test,TRUE,66,500,incongruent,blue,green,,,,,-1,-1,poldrack-single-stim,227,408445,0.0-227.0,093075a6-ff43-4260-bc39-5c8a206a6e2e,,500,500,fixation,,<div class = centerbox><div class = fixation>+</div></div>,none,500,test,,,,,,,,,,,813,66,poldrack-categorize,228,410958,0.0-228.0,093075a6-ff43-4260-bc39-5c8a206a6e2e,,1500,250,stim,,"<div class = centerbox><div class = stroop-stim style = ""color:blue"">GREEN</div></div>","66,71,82",1500,test,TRUE,66,500,incongruent,blue,green,,,,,-1,-1,poldrack-single-stim,229,411719,0.0-229.0,093075a6-ff43-4260-bc39-5c8a206a6e2e,,500,500,fixation,,<div class = centerbox><div class = fixation>+</div></div>,none,500,test,,,,,,,,,,,772,82,poldrack-categorize,230,414232,0.0-230.0,093075a6-ff43-4260-bc39-5c8a206a6e2e,,1500,250,stim,,"<div class = centerbox><div class = stroop-stim style = ""color:red"">BLUE</div></div>","66,71,82",1500,test,TRUE,82,500,incongruent,red,blue,,,,,-1,-1,poldrack-single-stim,231,414992,0.0-231.0,093075a6-ff43-4260-bc39-5c8a206a6e2e,,500,500,fixation,,<div class = centerbox><div class = fixation>+</div></div>,none,500,test,,,,,,,,,,,792,82,poldrack-categorize,232,417506,0.0-232.0,093075a6-ff43-4260-bc39-5c8a206a6e2e,,1500,250,stim,,"<div class = centerbox><div class = stroop-stim style = ""color:red"">RED</div></div>","66,71,82",1500,test,TRUE,82,500,congruent,red,red,,,,,-1,-1,poldrack-single-stim,233,418260,0.0-233.0,093075a6-ff43-4260-bc39-5c8a206a6e2e,,500,500,fixation,,<div class = centerbox><div class = fixation>+</div></div>,none,500,test,,,,,,,,,,,852,71,poldrack-categorize,234,420771,0.0-234.0,093075a6-ff43-4260-bc39-5c8a206a6e2e,,1500,250,stim,,"<div class = centerbox><div class = stroop-stim style = ""color:green"">GREEN</div></div>","66,71,82",1500,test,TRUE,71,500,congruent,green,green,,,,,-1,-1,poldrack-single-stim,235,421528,0.0-235.0,093075a6-ff43-4260-bc39-5c8a206a6e2e,,500,500,fixation,,<div class = centerbox><div class = fixation>+</div></div>,none,500,test,,,,,,,,,,,919,82,poldrack-categorize,236,424042,0.0-236.0,093075a6-ff43-4260-bc39-5c8a206a6e2e,,1500,250,stim,,"<div class = centerbox><div class = stroop-stim style = ""color:red"">BLUE</div></div>","66,71,82",1500,test,TRUE,82,500,incongruent,red,blue,,,,,-1,-1,poldrack-single-stim,237,424798,0.0-237.0,093075a6-ff43-4260-bc39-5c8a206a6e2e,,500,500,fixation,,<div class = centerbox><div class = fixation>+</div></div>,none,500,test,,,,,,,,,,,788,82,poldrack-categorize,238,427310,0.0-238.0,093075a6-ff43-4260-bc39-5c8a206a6e2e,,1500,250,stim,,"<div class = centerbox><div class = stroop-stim style = ""color:red"">RED</div></div>","66,71,82",1500,test,TRUE,82,500,congruent,red,red,,,,,-1,-1,poldrack-single-stim,239,428070,0.0-239.0,093075a6-ff43-4260-bc39-5c8a206a6e2e,,500,500,fixation,,<div class = centerbox><div class = fixation>+</div></div>,none,500,test,,,,,,,,,,,819,71,poldrack-categorize,240,430584,0.0-240.0,093075a6-ff43-4260-bc39-5c8a206a6e2e,,1500,250,stim,,"<div class = centerbox><div class = stroop-stim style = ""color:green"">GREEN</div></div>","66,71,82",1500,test,TRUE,71,500,congruent,green,green,,,,,-1,-1,poldrack-single-stim,241,431344,0.0-241.0,093075a6-ff43-4260-bc39-5c8a206a6e2e,,500,500,fixation,,<div class = centerbox><div class = fixation>+</div></div>,none,500,test,,,,,,,,,,,831,71,poldrack-categorize,242,433857,0.0-242.0,093075a6-ff43-4260-bc39-5c8a206a6e2e,,1500,250,stim,,"<div class = centerbox><div class = stroop-stim style = ""color:green"">RED</div></div>","66,71,82",1500,test,TRUE,71,500,incongruent,green,red,,,,,-1,-1,poldrack-single-stim,243,434618,0.0-243.0,093075a6-ff43-4260-bc39-5c8a206a6e2e,,500,500,fixation,,<div class = centerbox><div class = fixation>+</div></div>,none,500,test,,,,,,,,,,,935,71,poldrack-categorize,244,437131,0.0-244.0,093075a6-ff43-4260-bc39-5c8a206a6e2e,,1500,250,stim,,"<div class = centerbox><div class = stroop-stim style = ""color:green"">GREEN</div></div>","66,71,82",1500,test,TRUE,71,500,congruent,green,green,,,,,32034,,survey-text,245,469424,0.0-246.0,093075a6-ff43-4260-bc39-5c8a206a6e2e,,,,post task questions,,,,,,,,,,,,"{""Q0"":""press the beginning letter of the color of the ink of the word that appears on the screen"",""Q1"":""no""}",,,,4804,13,poldrack-text,246,475230,0.0-247.0,093075a6-ff43-4260-bc39-5c8a206a6e2e,<div class = centerbox><p class = center-block-text>Thanks for completing this task!</p><p class = center-block-text>Press <strong>enter</strong> to continue.</p></div>,4804,0,end,,,,,,,,,,,,,stroop,TRUE,,3738,13,poldrack-text,247,479006,0.0-248.0-0.0,093075a6-ff43-4260-bc39-5c8a206a6e2e,<div class = centerbox><p class = center-block-text>Done with instructions. Press <strong>enter</strong> to continue.</p></div>,3738,0,instruction,,,,,,,,,,,,,,,,