rt,key_press,trial_type,trial_index,time_elapsed,internal_node_id,subject,text,block_duration,timing_post_trial,trial_id,view_history,stimulus,possible_responses,stim_duration,exp_stage,stim_place,stim_id,condition,correct,correct_response,responses,exp_id,feedback_duration,stim_color,stim_word,credit_var1982,13,text,0,1985,0.0-0.0,0e4cc311-e50a-46a6-8a44-acd3e6e28b84,,,,,,,,,,,,,,,,,,,,3679,13,poldrack-text,389,662373,0.0-388.0-0.0,0e4cc311-e50a-46a6-8a44-acd3e6e28b84,<div class = centerbox><p class = center-block-text>Done with instructions. Press <strong>enter</strong> to continue.</p></div>,3679,0,instruction,,,,,,,,,,,,,,,,25414,,poldrack-instructions,390,687788,0.0-388.0-1.0,0e4cc311-e50a-46a6-8a44-acd3e6e28b84,,,,instruction,"[{""page_index"":0,""viewing_time"":25414}]",,,,,,,,,,,,,,,2419,13,poldrack-text,391,691211,0.0-389.0,0e4cc311-e50a-46a6-8a44-acd3e6e28b84,"<div class = centerbox><p class = block-text>We will start with a few practice trials. Remember, press the key corresponding to the <strong>ink</strong> color of the word: ""r"" for words colored red, ""b"" for words colored blue, and ""g"" for words colored green.</p><p class = block-text>Press <strong>enter</strong> to begin practice.</p></div>",2419,1000,practice_intro,,,,,,,,,,,,,,,,-1,-1,poldrack-single-stim,392,692722,0.0-390.0,0e4cc311-e50a-46a6-8a44-acd3e6e28b84,,500,500,fixation,,<div class = centerbox><div class = fixation>+</div></div>,none,500,practice,,,,,,,,,,,723,82,poldrack-categorize,393,695226,0.0-391.0,0e4cc311-e50a-46a6-8a44-acd3e6e28b84,,1500,250,stim,,"<div class = centerbox><div class = stroop-stim style = ""color:red"">RED</div></div>","66,71,82",1500,practice,,,congruent,TRUE,82,,,500,red,red,-1,-1,poldrack-single-stim,394,695982,0.0-392.0,0e4cc311-e50a-46a6-8a44-acd3e6e28b84,,500,500,fixation,,<div class = centerbox><div class = fixation>+</div></div>,none,500,practice,,,,,,,,,,,558,82,poldrack-categorize,395,698492,0.0-393.0,0e4cc311-e50a-46a6-8a44-acd3e6e28b84,,1500,250,stim,,"<div class = centerbox><div class = stroop-stim style = ""color:red"">RED</div></div>","66,71,82",1500,practice,,,congruent,TRUE,82,,,500,red,red,-1,-1,poldrack-single-stim,396,699249,0.0-394.0,0e4cc311-e50a-46a6-8a44-acd3e6e28b84,,500,500,fixation,,<div class = centerbox><div class = fixation>+</div></div>,none,500,practice,,,,,,,,,,,1216,71,poldrack-categorize,397,701759,0.0-395.0,0e4cc311-e50a-46a6-8a44-acd3e6e28b84,,1500,250,stim,,"<div class = centerbox><div class = stroop-stim style = ""color:green"">GREEN</div></div>","66,71,82",1500,practice,,,congruent,TRUE,71,,,500,green,green,-1,-1,poldrack-single-stim,398,702520,0.0-396.0,0e4cc311-e50a-46a6-8a44-acd3e6e28b84,,500,500,fixation,,<div class = centerbox><div class = fixation>+</div></div>,none,500,practice,,,,,,,,,,,547,82,poldrack-categorize,399,705033,0.0-397.0,0e4cc311-e50a-46a6-8a44-acd3e6e28b84,,1500,250,stim,,"<div class = centerbox><div class = stroop-stim style = ""color:red"">GREEN</div></div>","66,71,82",1500,practice,,,incongruent,TRUE,82,,,500,red,green,-1,-1,poldrack-single-stim,400,705789,0.0-398.0,0e4cc311-e50a-46a6-8a44-acd3e6e28b84,,500,500,fixation,,<div class = centerbox><div class = fixation>+</div></div>,none,500,practice,,,,,,,,,,,1053,71,poldrack-categorize,401,708301,0.0-399.0,0e4cc311-e50a-46a6-8a44-acd3e6e28b84,,1500,250,stim,,"<div class = centerbox><div class = stroop-stim style = ""color:green"">RED</div></div>","66,71,82",1500,practice,,,incongruent,TRUE,71,,,500,green,red,-1,-1,poldrack-single-stim,402,709062,0.0-400.0,0e4cc311-e50a-46a6-8a44-acd3e6e28b84,,500,500,fixation,,<div class = centerbox><div class = fixation>+</div></div>,none,500,practice,,,,,,,,,,,970,71,poldrack-categorize,403,711575,0.0-401.0,0e4cc311-e50a-46a6-8a44-acd3e6e28b84,,1500,250,stim,,"<div class = centerbox><div class = stroop-stim style = ""color:green"">GREEN</div></div>","66,71,82",1500,practice,,,congruent,TRUE,71,,,500,green,green,-1,-1,poldrack-single-stim,404,712336,0.0-402.0,0e4cc311-e50a-46a6-8a44-acd3e6e28b84,,500,500,fixation,,<div class = centerbox><div class = fixation>+</div></div>,none,500,practice,,,,,,,,,,,724,66,poldrack-categorize,405,714843,0.0-403.0,0e4cc311-e50a-46a6-8a44-acd3e6e28b84,,1500,250,stim,,"<div class = centerbox><div class = stroop-stim style = ""color:blue"">BLUE</div></div>","66,71,82",1500,practice,,,congruent,TRUE,66,,,500,blue,blue,-1,-1,poldrack-single-stim,406,715604,0.0-404.0,0e4cc311-e50a-46a6-8a44-acd3e6e28b84,,500,500,fixation,,<div class = centerbox><div class = fixation>+</div></div>,none,500,practice,,,,,,,,,,,589,82,poldrack-categorize,407,718117,0.0-405.0,0e4cc311-e50a-46a6-8a44-acd3e6e28b84,,1500,250,stim,,"<div class = centerbox><div class = stroop-stim style = ""color:red"">RED</div></div>","66,71,82",1500,practice,,,congruent,TRUE,82,,,500,red,red,-1,-1,poldrack-single-stim,408,718877,0.0-406.0,0e4cc311-e50a-46a6-8a44-acd3e6e28b84,,500,500,fixation,,<div class = centerbox><div class = fixation>+</div></div>,none,500,practice,,,,,,,,,,,1043,66,poldrack-categorize,409,721391,0.0-407.0,0e4cc311-e50a-46a6-8a44-acd3e6e28b84,,1500,250,stim,,"<div class = centerbox><div class = stroop-stim style = ""color:blue"">GREEN</div></div>","66,71,82",1500,practice,,,incongruent,TRUE,66,,,500,blue,green,-1,-1,poldrack-single-stim,410,722151,0.0-408.0,0e4cc311-e50a-46a6-8a44-acd3e6e28b84,,500,500,fixation,,<div class = centerbox><div class = fixation>+</div></div>,none,500,practice,,,,,,,,,,,792,71,poldrack-categorize,411,724665,0.0-409.0,0e4cc311-e50a-46a6-8a44-acd3e6e28b84,,1500,250,stim,,"<div class = centerbox><div class = stroop-stim style = ""color:green"">GREEN</div></div>","66,71,82",1500,practice,,,congruent,TRUE,71,,,500,green,green,-1,-1,poldrack-single-stim,412,725425,0.0-410.0,0e4cc311-e50a-46a6-8a44-acd3e6e28b84,,500,500,fixation,,<div class = centerbox><div class = fixation>+</div></div>,none,500,practice,,,,,,,,,,,830,82,poldrack-categorize,413,727938,0.0-411.0,0e4cc311-e50a-46a6-8a44-acd3e6e28b84,,1500,250,stim,,"<div class = centerbox><div class = stroop-stim style = ""color:red"">GREEN</div></div>","66,71,82",1500,practice,,,incongruent,TRUE,82,,,500,red,green,-1,-1,poldrack-single-stim,414,728693,0.0-412.0,0e4cc311-e50a-46a6-8a44-acd3e6e28b84,,500,500,fixation,,<div class = centerbox><div class = fixation>+</div></div>,none,500,practice,,,,,,,,,,,771,82,poldrack-categorize,415,731206,0.0-413.0,0e4cc311-e50a-46a6-8a44-acd3e6e28b84,,1500,250,stim,,"<div class = centerbox><div class = stroop-stim style = ""color:red"">BLUE</div></div>","66,71,82",1500,practice,,,incongruent,TRUE,82,,,500,red,blue,-1,-1,poldrack-single-stim,416,731967,0.0-414.0,0e4cc311-e50a-46a6-8a44-acd3e6e28b84,,500,500,fixation,,<div class = centerbox><div class = fixation>+</div></div>,none,500,practice,,,,,,,,,,,776,66,poldrack-categorize,417,734480,0.0-415.0,0e4cc311-e50a-46a6-8a44-acd3e6e28b84,,1500,250,stim,,"<div class = centerbox><div class = stroop-stim style = ""color:blue"">RED</div></div>","66,71,82",1500,practice,,,incongruent,TRUE,66,,,500,blue,red,-1,-1,poldrack-single-stim,418,735241,0.0-416.0,0e4cc311-e50a-46a6-8a44-acd3e6e28b84,,500,500,fixation,,<div class = centerbox><div class = fixation>+</div></div>,none,500,practice,,,,,,,,,,,726,66,poldrack-categorize,419,737754,0.0-417.0,0e4cc311-e50a-46a6-8a44-acd3e6e28b84,,1500,250,stim,,"<div class = centerbox><div class = stroop-stim style = ""color:blue"">GREEN</div></div>","66,71,82",1500,practice,,,incongruent,TRUE,66,,,500,blue,green,-1,-1,poldrack-single-stim,420,738515,0.0-418.0,0e4cc311-e50a-46a6-8a44-acd3e6e28b84,,500,500,fixation,,<div class = centerbox><div class = fixation>+</div></div>,none,500,practice,,,,,,,,,,,549,66,poldrack-categorize,421,741028,0.0-419.0,0e4cc311-e50a-46a6-8a44-acd3e6e28b84,,1500,250,stim,,"<div class = centerbox><div class = stroop-stim style = ""color:blue"">BLUE</div></div>","66,71,82",1500,practice,,,congruent,TRUE,66,,,500,blue,blue,-1,-1,poldrack-single-stim,422,741788,0.0-420.0,0e4cc311-e50a-46a6-8a44-acd3e6e28b84,,500,500,fixation,,<div class = centerbox><div class = fixation>+</div></div>,none,500,practice,,,,,,,,,,,714,82,poldrack-categorize,423,744302,0.0-421.0,0e4cc311-e50a-46a6-8a44-acd3e6e28b84,,1500,250,stim,,"<div class = centerbox><div class = stroop-stim style = ""color:red"">BLUE</div></div>","66,71,82",1500,practice,,,incongruent,TRUE,82,,,500,red,blue,-1,-1,poldrack-single-stim,424,745062,0.0-422.0,0e4cc311-e50a-46a6-8a44-acd3e6e28b84,,500,500,fixation,,<div class = centerbox><div class = fixation>+</div></div>,none,500,practice,,,,,,,,,,,537,71,poldrack-categorize,425,747576,0.0-423.0,0e4cc311-e50a-46a6-8a44-acd3e6e28b84,,1500,250,stim,,"<div class = centerbox><div class = stroop-stim style = ""color:green"">GREEN</div></div>","66,71,82",1500,practice,,,congruent,TRUE,71,,,500,green,green,-1,-1,poldrack-single-stim,426,748330,0.0-424.0,0e4cc311-e50a-46a6-8a44-acd3e6e28b84,,500,500,fixation,,<div class = centerbox><div class = fixation>+</div></div>,none,500,practice,,,,,,,,,,,1100,82,poldrack-categorize,427,750844,0.0-425.0,0e4cc311-e50a-46a6-8a44-acd3e6e28b84,,1500,250,stim,,"<div class = centerbox><div class = stroop-stim style = ""color:green"">BLUE</div></div>","66,71,82",1500,practice,,,incongruent,FALSE,71,,,500,green,blue,-1,-1,poldrack-single-stim,428,751604,0.0-426.0,0e4cc311-e50a-46a6-8a44-acd3e6e28b84,,500,500,fixation,,<div class = centerbox><div class = fixation>+</div></div>,none,500,practice,,,,,,,,,,,594,82,poldrack-categorize,429,754117,0.0-427.0,0e4cc311-e50a-46a6-8a44-acd3e6e28b84,,1500,250,stim,,"<div class = centerbox><div class = stroop-stim style = ""color:red"">RED</div></div>","66,71,82",1500,practice,,,congruent,TRUE,82,,,500,red,red,-1,-1,poldrack-single-stim,430,754878,0.0-428.0,0e4cc311-e50a-46a6-8a44-acd3e6e28b84,,500,500,fixation,,<div class = centerbox><div class = fixation>+</div></div>,none,500,practice,,,,,,,,,,,936,66,poldrack-categorize,431,757388,0.0-429.0,0e4cc311-e50a-46a6-8a44-acd3e6e28b84,,1500,250,stim,,"<div class = centerbox><div class = stroop-stim style = ""color:blue"">BLUE</div></div>","66,71,82",1500,practice,,,congruent,TRUE,66,,,500,blue,blue,-1,-1,poldrack-single-stim,432,758146,0.0-430.0,0e4cc311-e50a-46a6-8a44-acd3e6e28b84,,500,500,fixation,,<div class = centerbox><div class = fixation>+</div></div>,none,500,practice,,,,,,,,,,,715,71,poldrack-categorize,433,760659,0.0-431.0,0e4cc311-e50a-46a6-8a44-acd3e6e28b84,,1500,250,stim,,"<div class = centerbox><div class = stroop-stim style = ""color:green"">RED</div></div>","66,71,82",1500,practice,,,incongruent,TRUE,71,,,500,green,red,-1,-1,poldrack-single-stim,434,761420,0.0-432.0,0e4cc311-e50a-46a6-8a44-acd3e6e28b84,,500,500,fixation,,<div class = centerbox><div class = fixation>+</div></div>,none,500,practice,,,,,,,,,,,697,71,poldrack-categorize,435,763931,0.0-433.0,0e4cc311-e50a-46a6-8a44-acd3e6e28b84,,1500,250,stim,,"<div class = centerbox><div class = stroop-stim style = ""color:green"">BLUE</div></div>","66,71,82",1500,practice,,,incongruent,TRUE,71,,,500,green,blue,-1,-1,poldrack-single-stim,436,764688,0.0-434.0,0e4cc311-e50a-46a6-8a44-acd3e6e28b84,,500,500,fixation,,<div class = centerbox><div class = fixation>+</div></div>,none,500,practice,,,,,,,,,,,933,66,poldrack-categorize,437,767201,0.0-435.0,0e4cc311-e50a-46a6-8a44-acd3e6e28b84,,1500,250,stim,,"<div class = centerbox><div class = stroop-stim style = ""color:blue"">RED</div></div>","66,71,82",1500,practice,,,incongruent,TRUE,66,,,500,blue,red,-1,-1,poldrack-single-stim,438,767956,0.0-436.0,0e4cc311-e50a-46a6-8a44-acd3e6e28b84,,500,500,fixation,,<div class = centerbox><div class = fixation>+</div></div>,none,500,practice,,,,,,,,,,,753,66,poldrack-categorize,439,770469,0.0-437.0,0e4cc311-e50a-46a6-8a44-acd3e6e28b84,,1500,250,stim,,"<div class = centerbox><div class = stroop-stim style = ""color:blue"">BLUE</div></div>","66,71,82",1500,practice,,,congruent,TRUE,66,,,500,blue,blue,6208,13,poldrack-text,440,776934,0.0-439.0,0e4cc311-e50a-46a6-8a44-acd3e6e28b84,<div class = centerbox><p class = center-block-text>We will now start the test. Respond exactly like you did during practice.</p><p class = center-block-text>Press <strong>enter</strong> to begin the test.</p></div>,6208,1000,test_intro,,,,,,,,,,,,,,,,-1,-1,poldrack-single-stim,441,778439,0.0-440.0,0e4cc311-e50a-46a6-8a44-acd3e6e28b84,,500,500,fixation,,<div class = centerbox><div class = fixation>+</div></div>,none,500,test,,,,,,,,,,,542,82,poldrack-categorize,442,780947,0.0-441.0,0e4cc311-e50a-46a6-8a44-acd3e6e28b84,,1500,250,stim,,"<div class = centerbox><div class = stroop-stim style = ""color:red"">RED</div></div>","66,71,82",1500,test,,,congruent,TRUE,82,,,500,red,red,-1,-1,poldrack-single-stim,443,781707,0.0-442.0,0e4cc311-e50a-46a6-8a44-acd3e6e28b84,,500,500,fixation,,<div class = centerbox><div class = fixation>+</div></div>,none,500,test,,,,,,,,,,,1129,71,poldrack-categorize,444,784220,0.0-443.0,0e4cc311-e50a-46a6-8a44-acd3e6e28b84,,1500,250,stim,,"<div class = centerbox><div class = stroop-stim style = ""color:green"">BLUE</div></div>","66,71,82",1500,test,,,incongruent,TRUE,71,,,500,green,blue,-1,-1,poldrack-single-stim,445,784981,0.0-444.0,0e4cc311-e50a-46a6-8a44-acd3e6e28b84,,500,500,fixation,,<div class = centerbox><div class = fixation>+</div></div>,none,500,test,,,,,,,,,,,519,71,poldrack-categorize,446,787494,0.0-445.0,0e4cc311-e50a-46a6-8a44-acd3e6e28b84,,1500,250,stim,,"<div class = centerbox><div class = stroop-stim style = ""color:green"">GREEN</div></div>","66,71,82",1500,test,,,congruent,TRUE,71,,,500,green,green,-1,-1,poldrack-single-stim,447,788255,0.0-446.0,0e4cc311-e50a-46a6-8a44-acd3e6e28b84,,500,500,fixation,,<div class = centerbox><div class = fixation>+</div></div>,none,500,test,,,,,,,,,,,861,66,poldrack-categorize,448,790763,0.0-447.0,0e4cc311-e50a-46a6-8a44-acd3e6e28b84,,1500,250,stim,,"<div class = centerbox><div class = stroop-stim style = ""color:blue"">GREEN</div></div>","66,71,82",1500,test,,,incongruent,TRUE,66,,,500,blue,green,-1,-1,poldrack-single-stim,449,791523,0.0-448.0,0e4cc311-e50a-46a6-8a44-acd3e6e28b84,,500,500,fixation,,<div class = centerbox><div class = fixation>+</div></div>,none,500,test,,,,,,,,,,,513,82,poldrack-categorize,450,794036,0.0-449.0,0e4cc311-e50a-46a6-8a44-acd3e6e28b84,,1500,250,stim,,"<div class = centerbox><div class = stroop-stim style = ""color:red"">GREEN</div></div>","66,71,82",1500,test,,,incongruent,TRUE,82,,,500,red,green,-1,-1,poldrack-single-stim,451,794797,0.0-450.0,0e4cc311-e50a-46a6-8a44-acd3e6e28b84,,500,500,fixation,,<div class = centerbox><div class = fixation>+</div></div>,none,500,test,,,,,,,,,,,871,66,poldrack-categorize,452,797310,0.0-451.0,0e4cc311-e50a-46a6-8a44-acd3e6e28b84,,1500,250,stim,,"<div class = centerbox><div class = stroop-stim style = ""color:blue"">BLUE</div></div>","66,71,82",1500,test,,,congruent,TRUE,66,,,500,blue,blue,-1,-1,poldrack-single-stim,453,798071,0.0-452.0,0e4cc311-e50a-46a6-8a44-acd3e6e28b84,,500,500,fixation,,<div class = centerbox><div class = fixation>+</div></div>,none,500,test,,,,,,,,,,,797,82,poldrack-categorize,454,800584,0.0-453.0,0e4cc311-e50a-46a6-8a44-acd3e6e28b84,,1500,250,stim,,"<div class = centerbox><div class = stroop-stim style = ""color:red"">BLUE</div></div>","66,71,82",1500,test,,,incongruent,TRUE,82,,,500,red,blue,-1,-1,poldrack-single-stim,455,801339,0.0-454.0,0e4cc311-e50a-46a6-8a44-acd3e6e28b84,,500,500,fixation,,<div class = centerbox><div class = fixation>+</div></div>,none,500,test,,,,,,,,,,,881,66,poldrack-categorize,456,803852,0.0-455.0,0e4cc311-e50a-46a6-8a44-acd3e6e28b84,,1500,250,stim,,"<div class = centerbox><div class = stroop-stim style = ""color:blue"">BLUE</div></div>","66,71,82",1500,test,,,congruent,TRUE,66,,,500,blue,blue,-1,-1,poldrack-single-stim,457,804608,0.0-456.0,0e4cc311-e50a-46a6-8a44-acd3e6e28b84,,500,500,fixation,,<div class = centerbox><div class = fixation>+</div></div>,none,500,test,,,,,,,,,,,669,66,poldrack-categorize,458,807120,0.0-457.0,0e4cc311-e50a-46a6-8a44-acd3e6e28b84,,1500,250,stim,,"<div class = centerbox><div class = stroop-stim style = ""color:blue"">GREEN</div></div>","66,71,82",1500,test,,,incongruent,TRUE,66,,,500,blue,green,-1,-1,poldrack-single-stim,459,807880,0.0-458.0,0e4cc311-e50a-46a6-8a44-acd3e6e28b84,,500,500,fixation,,<div class = centerbox><div class = fixation>+</div></div>,none,500,test,,,,,,,,,,,731,71,poldrack-categorize,460,810394,0.0-459.0,0e4cc311-e50a-46a6-8a44-acd3e6e28b84,,1500,250,stim,,"<div class = centerbox><div class = stroop-stim style = ""color:green"">RED</div></div>","66,71,82",1500,test,,,incongruent,TRUE,71,,,500,green,red,-1,-1,poldrack-single-stim,461,811154,0.0-460.0,0e4cc311-e50a-46a6-8a44-acd3e6e28b84,,500,500,fixation,,<div class = centerbox><div class = fixation>+</div></div>,none,500,test,,,,,,,,,,,882,66,poldrack-categorize,462,813664,0.0-461.0,0e4cc311-e50a-46a6-8a44-acd3e6e28b84,,1500,250,stim,,"<div class = centerbox><div class = stroop-stim style = ""color:blue"">RED</div></div>","66,71,82",1500,test,,,incongruent,TRUE,66,,,500,blue,red,-1,-1,poldrack-single-stim,463,814422,0.0-462.0,0e4cc311-e50a-46a6-8a44-acd3e6e28b84,,500,500,fixation,,<div class = centerbox><div class = fixation>+</div></div>,none,500,test,,,,,,,,,,,813,66,poldrack-categorize,464,816935,0.0-463.0,0e4cc311-e50a-46a6-8a44-acd3e6e28b84,,1500,250,stim,,"<div class = centerbox><div class = stroop-stim style = ""color:blue"">BLUE</div></div>","66,71,82",1500,test,,,congruent,TRUE,66,,,500,blue,blue,-1,-1,poldrack-single-stim,465,817690,0.0-464.0,0e4cc311-e50a-46a6-8a44-acd3e6e28b84,,500,500,fixation,,<div class = centerbox><div class = fixation>+</div></div>,none,500,test,,,,,,,,,,,856,66,poldrack-categorize,466,820203,0.0-465.0,0e4cc311-e50a-46a6-8a44-acd3e6e28b84,,1500,250,stim,,"<div class = centerbox><div class = stroop-stim style = ""color:blue"">BLUE</div></div>","66,71,82",1500,test,,,congruent,TRUE,66,,,500,blue,blue,-1,-1,poldrack-single-stim,467,820964,0.0-466.0,0e4cc311-e50a-46a6-8a44-acd3e6e28b84,,500,500,fixation,,<div class = centerbox><div class = fixation>+</div></div>,none,500,test,,,,,,,,,,,558,71,poldrack-categorize,468,823477,0.0-467.0,0e4cc311-e50a-46a6-8a44-acd3e6e28b84,,1500,250,stim,,"<div class = centerbox><div class = stroop-stim style = ""color:green"">BLUE</div></div>","66,71,82",1500,test,,,incongruent,TRUE,71,,,500,green,blue,-1,-1,poldrack-single-stim,469,824238,0.0-468.0,0e4cc311-e50a-46a6-8a44-acd3e6e28b84,,500,500,fixation,,<div class = centerbox><div class = fixation>+</div></div>,none,500,test,,,,,,,,,,,493,82,poldrack-categorize,470,826751,0.0-469.0,0e4cc311-e50a-46a6-8a44-acd3e6e28b84,,1500,250,stim,,"<div class = centerbox><div class = stroop-stim style = ""color:red"">RED</div></div>","66,71,82",1500,test,,,congruent,TRUE,82,,,500,red,red,-1,-1,poldrack-single-stim,471,827512,0.0-470.0,0e4cc311-e50a-46a6-8a44-acd3e6e28b84,,500,500,fixation,,<div class = centerbox><div class = fixation>+</div></div>,none,500,test,,,,,,,,,,,819,71,poldrack-categorize,472,830025,0.0-471.0,0e4cc311-e50a-46a6-8a44-acd3e6e28b84,,1500,250,stim,,"<div class = centerbox><div class = stroop-stim style = ""color:green"">RED</div></div>","66,71,82",1500,test,,,incongruent,TRUE,71,,,500,green,red,-1,-1,poldrack-single-stim,473,830785,0.0-472.0,0e4cc311-e50a-46a6-8a44-acd3e6e28b84,,500,500,fixation,,<div class = centerbox><div class = fixation>+</div></div>,none,500,test,,,,,,,,,,,792,82,poldrack-categorize,474,833295,0.0-473.0,0e4cc311-e50a-46a6-8a44-acd3e6e28b84,,1500,250,stim,,"<div class = centerbox><div class = stroop-stim style = ""color:red"">RED</div></div>","66,71,82",1500,test,,,congruent,TRUE,82,,,500,red,red,-1,-1,poldrack-single-stim,475,834054,0.0-474.0,0e4cc311-e50a-46a6-8a44-acd3e6e28b84,,500,500,fixation,,<div class = centerbox><div class = fixation>+</div></div>,none,500,test,,,,,,,,,,,596,82,poldrack-categorize,476,836567,0.0-475.0,0e4cc311-e50a-46a6-8a44-acd3e6e28b84,,1500,250,stim,,"<div class = centerbox><div class = stroop-stim style = ""color:red"">RED</div></div>","66,71,82",1500,test,,,congruent,TRUE,82,,,500,red,red,-1,-1,poldrack-single-stim,477,837327,0.0-476.0,0e4cc311-e50a-46a6-8a44-acd3e6e28b84,,500,500,fixation,,<div class = centerbox><div class = fixation>+</div></div>,none,500,test,,,,,,,,,,,738,71,poldrack-categorize,478,839838,0.0-477.0,0e4cc311-e50a-46a6-8a44-acd3e6e28b84,,1500,250,stim,,"<div class = centerbox><div class = stroop-stim style = ""color:green"">BLUE</div></div>","66,71,82",1500,test,,,incongruent,TRUE,71,,,500,green,blue,-1,-1,poldrack-single-stim,479,840595,0.0-478.0,0e4cc311-e50a-46a6-8a44-acd3e6e28b84,,500,500,fixation,,<div class = centerbox><div class = fixation>+</div></div>,none,500,test,,,,,,,,,,,718,66,poldrack-categorize,480,843109,0.0-479.0,0e4cc311-e50a-46a6-8a44-acd3e6e28b84,,1500,250,stim,,"<div class = centerbox><div class = stroop-stim style = ""color:red"">GREEN</div></div>","66,71,82",1500,test,,,incongruent,FALSE,82,,,500,red,green,-1,-1,poldrack-single-stim,481,843869,0.0-480.0,0e4cc311-e50a-46a6-8a44-acd3e6e28b84,,500,500,fixation,,<div class = centerbox><div class = fixation>+</div></div>,none,500,test,,,,,,,,,,,1124,71,poldrack-categorize,482,846377,0.0-481.0,0e4cc311-e50a-46a6-8a44-acd3e6e28b84,,1500,250,stim,,"<div class = centerbox><div class = stroop-stim style = ""color:green"">GREEN</div></div>","66,71,82",1500,test,,,congruent,TRUE,71,,,500,green,green,-1,-1,poldrack-single-stim,483,847138,0.0-482.0,0e4cc311-e50a-46a6-8a44-acd3e6e28b84,,500,500,fixation,,<div class = centerbox><div class = fixation>+</div></div>,none,500,test,,,,,,,,,,,440,71,poldrack-categorize,484,849650,0.0-483.0,0e4cc311-e50a-46a6-8a44-acd3e6e28b84,,1500,250,stim,,"<div class = centerbox><div class = stroop-stim style = ""color:green"">GREEN</div></div>","66,71,82",1500,test,,,congruent,TRUE,71,,,500,green,green,-1,-1,poldrack-single-stim,485,850411,0.0-484.0,0e4cc311-e50a-46a6-8a44-acd3e6e28b84,,500,500,fixation,,<div class = centerbox><div class = fixation>+</div></div>,none,500,test,,,,,,,,,,,470,71,poldrack-categorize,486,852924,0.0-485.0,0e4cc311-e50a-46a6-8a44-acd3e6e28b84,,1500,250,stim,,"<div class = centerbox><div class = stroop-stim style = ""color:green"">GREEN</div></div>","66,71,82",1500,test,,,congruent,TRUE,71,,,500,green,green,-1,-1,poldrack-single-stim,487,853683,0.0-486.0,0e4cc311-e50a-46a6-8a44-acd3e6e28b84,,500,500,fixation,,<div class = centerbox><div class = fixation>+</div></div>,none,500,test,,,,,,,,,,,522,71,poldrack-categorize,488,856187,0.0-487.0,0e4cc311-e50a-46a6-8a44-acd3e6e28b84,,1500,250,stim,,"<div class = centerbox><div class = stroop-stim style = ""color:green"">GREEN</div></div>","66,71,82",1500,test,,,congruent,TRUE,71,,,500,green,green,-1,-1,poldrack-single-stim,489,856947,0.0-488.0,0e4cc311-e50a-46a6-8a44-acd3e6e28b84,,500,500,fixation,,<div class = centerbox><div class = fixation>+</div></div>,none,500,test,,,,,,,,,,,1037,82,poldrack-categorize,490,859460,0.0-489.0,0e4cc311-e50a-46a6-8a44-acd3e6e28b84,,1500,250,stim,,"<div class = centerbox><div class = stroop-stim style = ""color:red"">RED</div></div>","66,71,82",1500,test,,,congruent,TRUE,82,,,500,red,red,-1,-1,poldrack-single-stim,491,860219,0.0-490.0,0e4cc311-e50a-46a6-8a44-acd3e6e28b84,,500,500,fixation,,<div class = centerbox><div class = fixation>+</div></div>,none,500,test,,,,,,,,,,,401,82,poldrack-categorize,492,862728,0.0-491.0,0e4cc311-e50a-46a6-8a44-acd3e6e28b84,,1500,250,stim,,"<div class = centerbox><div class = stroop-stim style = ""color:red"">RED</div></div>","66,71,82",1500,test,,,congruent,TRUE,82,,,500,red,red,-1,-1,poldrack-single-stim,493,863483,0.0-492.0,0e4cc311-e50a-46a6-8a44-acd3e6e28b84,,500,500,fixation,,<div class = centerbox><div class = fixation>+</div></div>,none,500,test,,,,,,,,,,,653,66,poldrack-categorize,494,865996,0.0-493.0,0e4cc311-e50a-46a6-8a44-acd3e6e28b84,,1500,250,stim,,"<div class = centerbox><div class = stroop-stim style = ""color:blue"">RED</div></div>","66,71,82",1500,test,,,incongruent,TRUE,66,,,500,blue,red,-1,-1,poldrack-single-stim,495,866757,0.0-494.0,0e4cc311-e50a-46a6-8a44-acd3e6e28b84,,500,500,fixation,,<div class = centerbox><div class = fixation>+</div></div>,none,500,test,,,,,,,,,,,699,82,poldrack-categorize,496,869270,0.0-495.0,0e4cc311-e50a-46a6-8a44-acd3e6e28b84,,1500,250,stim,,"<div class = centerbox><div class = stroop-stim style = ""color:red"">GREEN</div></div>","66,71,82",1500,test,,,incongruent,TRUE,82,,,500,red,green,-1,-1,poldrack-single-stim,497,870027,0.0-496.0,0e4cc311-e50a-46a6-8a44-acd3e6e28b84,,500,500,fixation,,<div class = centerbox><div class = fixation>+</div></div>,none,500,test,,,,,,,,,,,518,82,poldrack-categorize,498,872539,0.0-497.0,0e4cc311-e50a-46a6-8a44-acd3e6e28b84,,1500,250,stim,,"<div class = centerbox><div class = stroop-stim style = ""color:red"">BLUE</div></div>","66,71,82",1500,test,,,incongruent,TRUE,82,,,500,red,blue,-1,-1,poldrack-single-stim,499,873295,0.0-498.0,0e4cc311-e50a-46a6-8a44-acd3e6e28b84,,500,500,fixation,,<div class = centerbox><div class = fixation>+</div></div>,none,500,test,,,,,,,,,,,482,82,poldrack-categorize,500,875806,0.0-499.0,0e4cc311-e50a-46a6-8a44-acd3e6e28b84,,1500,250,stim,,"<div class = centerbox><div class = stroop-stim style = ""color:red"">RED</div></div>","66,71,82",1500,test,,,congruent,TRUE,82,,,500,red,red,-1,-1,poldrack-single-stim,501,876567,0.0-500.0,0e4cc311-e50a-46a6-8a44-acd3e6e28b84,,500,500,fixation,,<div class = centerbox><div class = fixation>+</div></div>,none,500,test,,,,,,,,,,,801,71,poldrack-categorize,502,879080,0.0-501.0,0e4cc311-e50a-46a6-8a44-acd3e6e28b84,,1500,250,stim,,"<div class = centerbox><div class = stroop-stim style = ""color:green"">RED</div></div>","66,71,82",1500,test,,,incongruent,TRUE,71,,,500,green,red,-1,-1,poldrack-single-stim,503,879841,0.0-502.0,0e4cc311-e50a-46a6-8a44-acd3e6e28b84,,500,500,fixation,,<div class = centerbox><div class = fixation>+</div></div>,none,500,test,,,,,,,,,,,807,82,poldrack-categorize,504,882354,0.0-503.0,0e4cc311-e50a-46a6-8a44-acd3e6e28b84,,1500,250,stim,,"<div class = centerbox><div class = stroop-stim style = ""color:red"">GREEN</div></div>","66,71,82",1500,test,,,incongruent,TRUE,82,,,500,red,green,-1,-1,poldrack-single-stim,505,883115,0.0-504.0,0e4cc311-e50a-46a6-8a44-acd3e6e28b84,,500,500,fixation,,<div class = centerbox><div class = fixation>+</div></div>,none,500,test,,,,,,,,,,,628,71,poldrack-categorize,506,885628,0.0-505.0,0e4cc311-e50a-46a6-8a44-acd3e6e28b84,,1500,250,stim,,"<div class = centerbox><div class = stroop-stim style = ""color:green"">BLUE</div></div>","66,71,82",1500,test,,,incongruent,TRUE,71,,,500,green,blue,-1,-1,poldrack-single-stim,507,886388,0.0-506.0,0e4cc311-e50a-46a6-8a44-acd3e6e28b84,,500,500,fixation,,<div class = centerbox><div class = fixation>+</div></div>,none,500,test,,,,,,,,,,,706,71,poldrack-categorize,508,888902,0.0-507.0,0e4cc311-e50a-46a6-8a44-acd3e6e28b84,,1500,250,stim,,"<div class = centerbox><div class = stroop-stim style = ""color:green"">GREEN</div></div>","66,71,82",1500,test,,,congruent,TRUE,71,,,500,green,green,-1,-1,poldrack-single-stim,509,889662,0.0-508.0,0e4cc311-e50a-46a6-8a44-acd3e6e28b84,,500,500,fixation,,<div class = centerbox><div class = fixation>+</div></div>,none,500,test,,,,,,,,,,,792,82,poldrack-categorize,510,892177,0.0-509.0,0e4cc311-e50a-46a6-8a44-acd3e6e28b84,,1500,250,stim,,"<div class = centerbox><div class = stroop-stim style = ""color:red"">BLUE</div></div>","66,71,82",1500,test,,,incongruent,TRUE,82,,,500,red,blue,-1,-1,poldrack-single-stim,511,892936,0.0-510.0,0e4cc311-e50a-46a6-8a44-acd3e6e28b84,,500,500,fixation,,<div class = centerbox><div class = fixation>+</div></div>,none,500,test,,,,,,,,,,,558,71,poldrack-categorize,512,895449,0.0-511.0,0e4cc311-e50a-46a6-8a44-acd3e6e28b84,,1500,250,stim,,"<div class = centerbox><div class = stroop-stim style = ""color:green"">BLUE</div></div>","66,71,82",1500,test,,,incongruent,TRUE,71,,,500,green,blue,-1,-1,poldrack-single-stim,513,896210,0.0-512.0,0e4cc311-e50a-46a6-8a44-acd3e6e28b84,,500,500,fixation,,<div class = centerbox><div class = fixation>+</div></div>,none,500,test,,,,,,,,,,,652,66,poldrack-categorize,514,898723,0.0-513.0,0e4cc311-e50a-46a6-8a44-acd3e6e28b84,,1500,250,stim,,"<div class = centerbox><div class = stroop-stim style = ""color:blue"">RED</div></div>","66,71,82",1500,test,,,incongruent,TRUE,66,,,500,blue,red,-1,-1,poldrack-single-stim,515,899484,0.0-514.0,0e4cc311-e50a-46a6-8a44-acd3e6e28b84,,500,500,fixation,,<div class = centerbox><div class = fixation>+</div></div>,none,500,test,,,,,,,,,,,474,66,poldrack-categorize,516,901997,0.0-515.0,0e4cc311-e50a-46a6-8a44-acd3e6e28b84,,1500,250,stim,,"<div class = centerbox><div class = stroop-stim style = ""color:blue"">BLUE</div></div>","66,71,82",1500,test,,,congruent,TRUE,66,,,500,blue,blue,-1,-1,poldrack-single-stim,517,902758,0.0-516.0,0e4cc311-e50a-46a6-8a44-acd3e6e28b84,,500,500,fixation,,<div class = centerbox><div class = fixation>+</div></div>,none,500,test,,,,,,,,,,,440,66,poldrack-categorize,518,905271,0.0-517.0,0e4cc311-e50a-46a6-8a44-acd3e6e28b84,,1500,250,stim,,"<div class = centerbox><div class = stroop-stim style = ""color:blue"">BLUE</div></div>","66,71,82",1500,test,,,congruent,TRUE,66,,,500,blue,blue,-1,-1,poldrack-single-stim,519,906031,0.0-518.0,0e4cc311-e50a-46a6-8a44-acd3e6e28b84,,500,500,fixation,,<div class = centerbox><div class = fixation>+</div></div>,none,500,test,,,,,,,,,,,678,71,poldrack-categorize,520,908546,0.0-519.0,0e4cc311-e50a-46a6-8a44-acd3e6e28b84,,1500,250,stim,,"<div class = centerbox><div class = stroop-stim style = ""color:green"">GREEN</div></div>","66,71,82",1500,test,,,congruent,TRUE,71,,,500,green,green,-1,-1,poldrack-single-stim,521,909305,0.0-520.0,0e4cc311-e50a-46a6-8a44-acd3e6e28b84,,500,500,fixation,,<div class = centerbox><div class = fixation>+</div></div>,none,500,test,,,,,,,,,,,972,66,poldrack-categorize,522,911818,0.0-521.0,0e4cc311-e50a-46a6-8a44-acd3e6e28b84,,1500,250,stim,,"<div class = centerbox><div class = stroop-stim style = ""color:blue"">RED</div></div>","66,71,82",1500,test,,,incongruent,TRUE,66,,,500,blue,red,-1,-1,poldrack-single-stim,523,912579,0.0-522.0,0e4cc311-e50a-46a6-8a44-acd3e6e28b84,,500,500,fixation,,<div class = centerbox><div class = fixation>+</div></div>,none,500,test,,,,,,,,,,,674,66,poldrack-categorize,524,915092,0.0-523.0,0e4cc311-e50a-46a6-8a44-acd3e6e28b84,,1500,250,stim,,"<div class = centerbox><div class = stroop-stim style = ""color:blue"">RED</div></div>","66,71,82",1500,test,,,incongruent,TRUE,66,,,500,blue,red,-1,-1,poldrack-single-stim,525,915851,0.0-524.0,0e4cc311-e50a-46a6-8a44-acd3e6e28b84,,500,500,fixation,,<div class = centerbox><div class = fixation>+</div></div>,none,500,test,,,,,,,,,,,790,82,poldrack-categorize,526,918360,0.0-525.0,0e4cc311-e50a-46a6-8a44-acd3e6e28b84,,1500,250,stim,,"<div class = centerbox><div class = stroop-stim style = ""color:red"">RED</div></div>","66,71,82",1500,test,,,congruent,TRUE,82,,,500,red,red,-1,-1,poldrack-single-stim,527,919121,0.0-526.0,0e4cc311-e50a-46a6-8a44-acd3e6e28b84,,500,500,fixation,,<div class = centerbox><div class = fixation>+</div></div>,none,500,test,,,,,,,,,,,1053,66,poldrack-categorize,528,921634,0.0-527.0,0e4cc311-e50a-46a6-8a44-acd3e6e28b84,,1500,250,stim,,"<div class = centerbox><div class = stroop-stim style = ""color:blue"">BLUE</div></div>","66,71,82",1500,test,,,congruent,TRUE,66,,,500,blue,blue,-1,-1,poldrack-single-stim,529,922395,0.0-528.0,0e4cc311-e50a-46a6-8a44-acd3e6e28b84,,500,500,fixation,,<div class = centerbox><div class = fixation>+</div></div>,none,500,test,,,,,,,,,,,666,71,poldrack-categorize,530,924908,0.0-529.0,0e4cc311-e50a-46a6-8a44-acd3e6e28b84,,1500,250,stim,,"<div class = centerbox><div class = stroop-stim style = ""color:green"">GREEN</div></div>","66,71,82",1500,test,,,congruent,TRUE,71,,,500,green,green,-1,-1,poldrack-single-stim,531,925669,0.0-530.0,0e4cc311-e50a-46a6-8a44-acd3e6e28b84,,500,500,fixation,,<div class = centerbox><div class = fixation>+</div></div>,none,500,test,,,,,,,,,,,456,82,poldrack-categorize,532,928182,0.0-531.0,0e4cc311-e50a-46a6-8a44-acd3e6e28b84,,1500,250,stim,,"<div class = centerbox><div class = stroop-stim style = ""color:red"">RED</div></div>","66,71,82",1500,test,,,congruent,TRUE,82,,,500,red,red,-1,-1,poldrack-single-stim,533,928936,0.0-532.0,0e4cc311-e50a-46a6-8a44-acd3e6e28b84,,500,500,fixation,,<div class = centerbox><div class = fixation>+</div></div>,none,500,test,,,,,,,,,,,852,66,poldrack-categorize,534,931450,0.0-533.0,0e4cc311-e50a-46a6-8a44-acd3e6e28b84,,1500,250,stim,,"<div class = centerbox><div class = stroop-stim style = ""color:blue"">GREEN</div></div>","66,71,82",1500,test,,,incongruent,TRUE,66,,,500,blue,green,-1,-1,poldrack-single-stim,535,932210,0.0-534.0,0e4cc311-e50a-46a6-8a44-acd3e6e28b84,,500,500,fixation,,<div class = centerbox><div class = fixation>+</div></div>,none,500,test,,,,,,,,,,,538,66,poldrack-categorize,536,934724,0.0-535.0,0e4cc311-e50a-46a6-8a44-acd3e6e28b84,,1500,250,stim,,"<div class = centerbox><div class = stroop-stim style = ""color:blue"">BLUE</div></div>","66,71,82",1500,test,,,congruent,TRUE,66,,,500,blue,blue,-1,-1,poldrack-single-stim,537,935484,0.0-536.0,0e4cc311-e50a-46a6-8a44-acd3e6e28b84,,500,500,fixation,,<div class = centerbox><div class = fixation>+</div></div>,none,500,test,,,,,,,,,,,471,66,poldrack-categorize,538,937997,0.0-537.0,0e4cc311-e50a-46a6-8a44-acd3e6e28b84,,1500,250,stim,,"<div class = centerbox><div class = stroop-stim style = ""color:blue"">BLUE</div></div>","66,71,82",1500,test,,,congruent,TRUE,66,,,500,blue,blue,-1,-1,poldrack-single-stim,539,938754,0.0-538.0,0e4cc311-e50a-46a6-8a44-acd3e6e28b84,,500,500,fixation,,<div class = centerbox><div class = fixation>+</div></div>,none,500,test,,,,,,,,,,,744,82,poldrack-categorize,540,941265,0.0-539.0,0e4cc311-e50a-46a6-8a44-acd3e6e28b84,,1500,250,stim,,"<div class = centerbox><div class = stroop-stim style = ""color:red"">GREEN</div></div>","66,71,82",1500,test,,,incongruent,TRUE,82,,,500,red,green,-1,-1,poldrack-single-stim,541,942026,0.0-540.0,0e4cc311-e50a-46a6-8a44-acd3e6e28b84,,500,500,fixation,,<div class = centerbox><div class = fixation>+</div></div>,none,500,test,,,,,,,,,,,1002,66,poldrack-categorize,542,944539,0.0-541.0,0e4cc311-e50a-46a6-8a44-acd3e6e28b84,,1500,250,stim,,"<div class = centerbox><div class = stroop-stim style = ""color:blue"">GREEN</div></div>","66,71,82",1500,test,,,incongruent,TRUE,66,,,500,blue,green,-1,-1,poldrack-single-stim,543,945300,0.0-542.0,0e4cc311-e50a-46a6-8a44-acd3e6e28b84,,500,500,fixation,,<div class = centerbox><div class = fixation>+</div></div>,none,500,test,,,,,,,,,,,471,66,poldrack-categorize,544,947813,0.0-543.0,0e4cc311-e50a-46a6-8a44-acd3e6e28b84,,1500,250,stim,,"<div class = centerbox><div class = stroop-stim style = ""color:blue"">BLUE</div></div>","66,71,82",1500,test,,,congruent,TRUE,66,,,500,blue,blue,-1,-1,poldrack-single-stim,545,948574,0.0-544.0,0e4cc311-e50a-46a6-8a44-acd3e6e28b84,,500,500,fixation,,<div class = centerbox><div class = fixation>+</div></div>,none,500,test,,,,,,,,,,,382,66,poldrack-categorize,546,951086,0.0-545.0,0e4cc311-e50a-46a6-8a44-acd3e6e28b84,,1500,250,stim,,"<div class = centerbox><div class = stroop-stim style = ""color:blue"">GREEN</div></div>","66,71,82",1500,test,,,incongruent,TRUE,66,,,500,blue,green,-1,-1,poldrack-single-stim,547,951842,0.0-546.0,0e4cc311-e50a-46a6-8a44-acd3e6e28b84,,500,500,fixation,,<div class = centerbox><div class = fixation>+</div></div>,none,500,test,,,,,,,,,,,938,82,poldrack-categorize,548,954353,0.0-547.0,0e4cc311-e50a-46a6-8a44-acd3e6e28b84,,1500,250,stim,,"<div class = centerbox><div class = stroop-stim style = ""color:red"">RED</div></div>","66,71,82",1500,test,,,congruent,TRUE,82,,,500,red,red,-1,-1,poldrack-single-stim,549,955110,0.0-548.0,0e4cc311-e50a-46a6-8a44-acd3e6e28b84,,500,500,fixation,,<div class = centerbox><div class = fixation>+</div></div>,none,500,test,,,,,,,,,,,565,71,poldrack-categorize,550,957623,0.0-549.0,0e4cc311-e50a-46a6-8a44-acd3e6e28b84,,1500,250,stim,,"<div class = centerbox><div class = stroop-stim style = ""color:green"">BLUE</div></div>","66,71,82",1500,test,,,incongruent,TRUE,71,,,500,green,blue,-1,-1,poldrack-single-stim,551,958384,0.0-550.0,0e4cc311-e50a-46a6-8a44-acd3e6e28b84,,500,500,fixation,,<div class = centerbox><div class = fixation>+</div></div>,none,500,test,,,,,,,,,,,947,66,poldrack-categorize,552,960897,0.0-551.0,0e4cc311-e50a-46a6-8a44-acd3e6e28b84,,1500,250,stim,,"<div class = centerbox><div class = stroop-stim style = ""color:blue"">BLUE</div></div>","66,71,82",1500,test,,,congruent,TRUE,66,,,500,blue,blue,-1,-1,poldrack-single-stim,553,961658,0.0-552.0,0e4cc311-e50a-46a6-8a44-acd3e6e28b84,,500,500,fixation,,<div class = centerbox><div class = fixation>+</div></div>,none,500,test,,,,,,,,,,,641,82,poldrack-categorize,554,964171,0.0-553.0,0e4cc311-e50a-46a6-8a44-acd3e6e28b84,,1500,250,stim,,"<div class = centerbox><div class = stroop-stim style = ""color:red"">RED</div></div>","66,71,82",1500,test,,,congruent,TRUE,82,,,500,red,red,-1,-1,poldrack-single-stim,555,964931,0.0-554.0,0e4cc311-e50a-46a6-8a44-acd3e6e28b84,,500,500,fixation,,<div class = centerbox><div class = fixation>+</div></div>,none,500,test,,,,,,,,,,,521,82,poldrack-categorize,556,967439,0.0-555.0,0e4cc311-e50a-46a6-8a44-acd3e6e28b84,,1500,250,stim,,"<div class = centerbox><div class = stroop-stim style = ""color:red"">RED</div></div>","66,71,82",1500,test,,,congruent,TRUE,82,,,500,red,red,-1,-1,poldrack-single-stim,557,968199,0.0-556.0,0e4cc311-e50a-46a6-8a44-acd3e6e28b84,,500,500,fixation,,<div class = centerbox><div class = fixation>+</div></div>,none,500,test,,,,,,,,,,,699,82,poldrack-categorize,558,970713,0.0-557.0,0e4cc311-e50a-46a6-8a44-acd3e6e28b84,,1500,250,stim,,"<div class = centerbox><div class = stroop-stim style = ""color:red"">RED</div></div>","66,71,82",1500,test,,,congruent,TRUE,82,,,500,red,red,-1,-1,poldrack-single-stim,559,971473,0.0-558.0,0e4cc311-e50a-46a6-8a44-acd3e6e28b84,,500,500,fixation,,<div class = centerbox><div class = fixation>+</div></div>,none,500,test,,,,,,,,,,,1088,66,poldrack-categorize,560,973986,0.0-559.0,0e4cc311-e50a-46a6-8a44-acd3e6e28b84,,1500,250,stim,,"<div class = centerbox><div class = stroop-stim style = ""color:blue"">GREEN</div></div>","66,71,82",1500,test,,,incongruent,TRUE,66,,,500,blue,green,-1,-1,poldrack-single-stim,561,974747,0.0-560.0,0e4cc311-e50a-46a6-8a44-acd3e6e28b84,,500,500,fixation,,<div class = centerbox><div class = fixation>+</div></div>,none,500,test,,,,,,,,,,,1022,71,poldrack-categorize,562,977260,0.0-561.0,0e4cc311-e50a-46a6-8a44-acd3e6e28b84,,1500,250,stim,,"<div class = centerbox><div class = stroop-stim style = ""color:green"">GREEN</div></div>","66,71,82",1500,test,,,congruent,TRUE,71,,,500,green,green,-1,-1,poldrack-single-stim,563,978021,0.0-562.0,0e4cc311-e50a-46a6-8a44-acd3e6e28b84,,500,500,fixation,,<div class = centerbox><div class = fixation>+</div></div>,none,500,test,,,,,,,,,,,1020,66,poldrack-categorize,564,980534,0.0-563.0,0e4cc311-e50a-46a6-8a44-acd3e6e28b84,,1500,250,stim,,"<div class = centerbox><div class = stroop-stim style = ""color:blue"">BLUE</div></div>","66,71,82",1500,test,,,congruent,TRUE,66,,,500,blue,blue,-1,-1,poldrack-single-stim,565,981295,0.0-564.0,0e4cc311-e50a-46a6-8a44-acd3e6e28b84,,500,500,fixation,,<div class = centerbox><div class = fixation>+</div></div>,none,500,test,,,,,,,,,,,483,71,poldrack-categorize,566,983808,0.0-565.0,0e4cc311-e50a-46a6-8a44-acd3e6e28b84,,1500,250,stim,,"<div class = centerbox><div class = stroop-stim style = ""color:green"">GREEN</div></div>","66,71,82",1500,test,,,congruent,TRUE,71,,,500,green,green,-1,-1,poldrack-single-stim,567,984568,0.0-566.0,0e4cc311-e50a-46a6-8a44-acd3e6e28b84,,500,500,fixation,,<div class = centerbox><div class = fixation>+</div></div>,none,500,test,,,,,,,,,,,570,71,poldrack-categorize,568,987076,0.0-567.0,0e4cc311-e50a-46a6-8a44-acd3e6e28b84,,1500,250,stim,,"<div class = centerbox><div class = stroop-stim style = ""color:green"">BLUE</div></div>","66,71,82",1500,test,,,incongruent,TRUE,71,,,500,green,blue,-1,-1,poldrack-single-stim,569,987837,0.0-568.0,0e4cc311-e50a-46a6-8a44-acd3e6e28b84,,500,500,fixation,,<div class = centerbox><div class = fixation>+</div></div>,none,500,test,,,,,,,,,,,661,82,poldrack-categorize,570,990350,0.0-569.0,0e4cc311-e50a-46a6-8a44-acd3e6e28b84,,1500,250,stim,,"<div class = centerbox><div class = stroop-stim style = ""color:red"">BLUE</div></div>","66,71,82",1500,test,,,incongruent,TRUE,82,,,500,red,blue,-1,-1,poldrack-single-stim,571,991110,0.0-570.0,0e4cc311-e50a-46a6-8a44-acd3e6e28b84,,500,500,fixation,,<div class = centerbox><div class = fixation>+</div></div>,none,500,test,,,,,,,,,,,499,82,poldrack-categorize,572,993624,0.0-571.0,0e4cc311-e50a-46a6-8a44-acd3e6e28b84,,1500,250,stim,,"<div class = centerbox><div class = stroop-stim style = ""color:red"">BLUE</div></div>","66,71,82",1500,test,,,incongruent,TRUE,82,,,500,red,blue,-1,-1,poldrack-single-stim,573,994384,0.0-572.0,0e4cc311-e50a-46a6-8a44-acd3e6e28b84,,500,500,fixation,,<div class = centerbox><div class = fixation>+</div></div>,none,500,test,,,,,,,,,,,882,71,poldrack-categorize,574,996897,0.0-573.0,0e4cc311-e50a-46a6-8a44-acd3e6e28b84,,1500,250,stim,,"<div class = centerbox><div class = stroop-stim style = ""color:green"">RED</div></div>","66,71,82",1500,test,,,incongruent,TRUE,71,,,500,green,red,-1,-1,poldrack-single-stim,575,997658,0.0-574.0,0e4cc311-e50a-46a6-8a44-acd3e6e28b84,,500,500,fixation,,<div class = centerbox><div class = fixation>+</div></div>,none,500,test,,,,,,,,,,,510,82,poldrack-categorize,576,1000171,0.0-575.0,0e4cc311-e50a-46a6-8a44-acd3e6e28b84,,1500,250,stim,,"<div class = centerbox><div class = stroop-stim style = ""color:red"">RED</div></div>","66,71,82",1500,test,,,congruent,TRUE,82,,,500,red,red,-1,-1,poldrack-single-stim,577,1000932,0.0-576.0,0e4cc311-e50a-46a6-8a44-acd3e6e28b84,,500,500,fixation,,<div class = centerbox><div class = fixation>+</div></div>,none,500,test,,,,,,,,,,,653,66,poldrack-categorize,578,1003445,0.0-577.0,0e4cc311-e50a-46a6-8a44-acd3e6e28b84,,1500,250,stim,,"<div class = centerbox><div class = stroop-stim style = ""color:blue"">BLUE</div></div>","66,71,82",1500,test,,,congruent,TRUE,66,,,500,blue,blue,-1,-1,poldrack-single-stim,579,1004206,0.0-578.0,0e4cc311-e50a-46a6-8a44-acd3e6e28b84,,500,500,fixation,,<div class = centerbox><div class = fixation>+</div></div>,none,500,test,,,,,,,,,,,1115,82,poldrack-categorize,580,1006719,0.0-579.0,0e4cc311-e50a-46a6-8a44-acd3e6e28b84,,1500,250,stim,,"<div class = centerbox><div class = stroop-stim style = ""color:red"">GREEN</div></div>","66,71,82",1500,test,,,incongruent,TRUE,82,,,500,red,green,-1,-1,poldrack-single-stim,581,1007479,0.0-580.0,0e4cc311-e50a-46a6-8a44-acd3e6e28b84,,500,500,fixation,,<div class = centerbox><div class = fixation>+</div></div>,none,500,test,,,,,,,,,,,1417,66,poldrack-categorize,582,1009993,0.0-581.0,0e4cc311-e50a-46a6-8a44-acd3e6e28b84,,1500,250,stim,,"<div class = centerbox><div class = stroop-stim style = ""color:blue"">BLUE</div></div>","66,71,82",1500,test,,,congruent,TRUE,66,,,500,blue,blue,-1,-1,poldrack-single-stim,583,1010747,0.0-582.0,0e4cc311-e50a-46a6-8a44-acd3e6e28b84,,500,500,fixation,,<div class = centerbox><div class = fixation>+</div></div>,none,500,test,,,,,,,,,,,572,71,poldrack-categorize,584,1013261,0.0-583.0,0e4cc311-e50a-46a6-8a44-acd3e6e28b84,,1500,250,stim,,"<div class = centerbox><div class = stroop-stim style = ""color:green"">GREEN</div></div>","66,71,82",1500,test,,,congruent,TRUE,71,,,500,green,green,-1,-1,poldrack-single-stim,585,1014021,0.0-584.0,0e4cc311-e50a-46a6-8a44-acd3e6e28b84,,500,500,fixation,,<div class = centerbox><div class = fixation>+</div></div>,none,500,test,,,,,,,,,,,764,82,poldrack-categorize,586,1016535,0.0-585.0,0e4cc311-e50a-46a6-8a44-acd3e6e28b84,,1500,250,stim,,"<div class = centerbox><div class = stroop-stim style = ""color:red"">GREEN</div></div>","66,71,82",1500,test,,,incongruent,TRUE,82,,,500,red,green,-1,-1,poldrack-single-stim,587,1017295,0.0-586.0,0e4cc311-e50a-46a6-8a44-acd3e6e28b84,,500,500,fixation,,<div class = centerbox><div class = fixation>+</div></div>,none,500,test,,,,,,,,,,,520,82,poldrack-categorize,588,1019808,0.0-587.0,0e4cc311-e50a-46a6-8a44-acd3e6e28b84,,1500,250,stim,,"<div class = centerbox><div class = stroop-stim style = ""color:red"">RED</div></div>","66,71,82",1500,test,,,congruent,TRUE,82,,,500,red,red,-1,-1,poldrack-single-stim,589,1020569,0.0-588.0,0e4cc311-e50a-46a6-8a44-acd3e6e28b84,,500,500,fixation,,<div class = centerbox><div class = fixation>+</div></div>,none,500,test,,,,,,,,,,,791,66,poldrack-categorize,590,1023082,0.0-589.0,0e4cc311-e50a-46a6-8a44-acd3e6e28b84,,1500,250,stim,,"<div class = centerbox><div class = stroop-stim style = ""color:blue"">GREEN</div></div>","66,71,82",1500,test,,,incongruent,TRUE,66,,,500,blue,green,-1,-1,poldrack-single-stim,591,1023837,0.0-590.0,0e4cc311-e50a-46a6-8a44-acd3e6e28b84,,500,500,fixation,,<div class = centerbox><div class = fixation>+</div></div>,none,500,test,,,,,,,,,,,939,66,poldrack-categorize,592,1026350,0.0-591.0,0e4cc311-e50a-46a6-8a44-acd3e6e28b84,,1500,250,stim,,"<div class = centerbox><div class = stroop-stim style = ""color:blue"">RED</div></div>","66,71,82",1500,test,,,incongruent,TRUE,66,,,500,blue,red,-1,-1,poldrack-single-stim,593,1027111,0.0-592.0,0e4cc311-e50a-46a6-8a44-acd3e6e28b84,,500,500,fixation,,<div class = centerbox><div class = fixation>+</div></div>,none,500,test,,,,,,,,,,,737,66,poldrack-categorize,594,1029624,0.0-593.0,0e4cc311-e50a-46a6-8a44-acd3e6e28b84,,1500,250,stim,,"<div class = centerbox><div class = stroop-stim style = ""color:blue"">BLUE</div></div>","66,71,82",1500,test,,,congruent,TRUE,66,,,500,blue,blue,-1,-1,poldrack-single-stim,595,1030385,0.0-594.0,0e4cc311-e50a-46a6-8a44-acd3e6e28b84,,500,500,fixation,,<div class = centerbox><div class = fixation>+</div></div>,none,500,test,,,,,,,,,,,734,71,poldrack-categorize,596,1032898,0.0-595.0,0e4cc311-e50a-46a6-8a44-acd3e6e28b84,,1500,250,stim,,"<div class = centerbox><div class = stroop-stim style = ""color:green"">RED</div></div>","66,71,82",1500,test,,,incongruent,TRUE,71,,,500,green,red,-1,-1,poldrack-single-stim,597,1033658,0.0-596.0,0e4cc311-e50a-46a6-8a44-acd3e6e28b84,,500,500,fixation,,<div class = centerbox><div class = fixation>+</div></div>,none,500,test,,,,,,,,,,,716,82,poldrack-categorize,598,1036172,0.0-597.0,0e4cc311-e50a-46a6-8a44-acd3e6e28b84,,1500,250,stim,,"<div class = centerbox><div class = stroop-stim style = ""color:red"">GREEN</div></div>","66,71,82",1500,test,,,incongruent,TRUE,82,,,500,red,green,-1,-1,poldrack-single-stim,599,1036932,0.0-598.0,0e4cc311-e50a-46a6-8a44-acd3e6e28b84,,500,500,fixation,,<div class = centerbox><div class = fixation>+</div></div>,none,500,test,,,,,,,,,,,706,82,poldrack-categorize,600,1039448,0.0-599.0,0e4cc311-e50a-46a6-8a44-acd3e6e28b84,,1500,250,stim,,"<div class = centerbox><div class = stroop-stim style = ""color:red"">RED</div></div>","66,71,82",1500,test,,,congruent,TRUE,82,,,500,red,red,-1,-1,poldrack-single-stim,601,1040206,0.0-600.0,0e4cc311-e50a-46a6-8a44-acd3e6e28b84,,500,500,fixation,,<div class = centerbox><div class = fixation>+</div></div>,none,500,test,,,,,,,,,,,816,71,poldrack-categorize,602,1042721,0.0-601.0,0e4cc311-e50a-46a6-8a44-acd3e6e28b84,,1500,250,stim,,"<div class = centerbox><div class = stroop-stim style = ""color:green"">GREEN</div></div>","66,71,82",1500,test,,,congruent,TRUE,71,,,500,green,green,-1,-1,poldrack-single-stim,603,1043480,0.0-602.0,0e4cc311-e50a-46a6-8a44-acd3e6e28b84,,500,500,fixation,,<div class = centerbox><div class = fixation>+</div></div>,none,500,test,,,,,,,,,,,837,82,poldrack-categorize,604,1045993,0.0-603.0,0e4cc311-e50a-46a6-8a44-acd3e6e28b84,,1500,250,stim,,"<div class = centerbox><div class = stroop-stim style = ""color:red"">BLUE</div></div>","66,71,82",1500,test,,,incongruent,TRUE,82,,,500,red,blue,-1,-1,poldrack-single-stim,605,1046748,0.0-604.0,0e4cc311-e50a-46a6-8a44-acd3e6e28b84,,500,500,fixation,,<div class = centerbox><div class = fixation>+</div></div>,none,500,test,,,,,,,,,,,593,71,poldrack-categorize,606,1049261,0.0-605.0,0e4cc311-e50a-46a6-8a44-acd3e6e28b84,,1500,250,stim,,"<div class = centerbox><div class = stroop-stim style = ""color:green"">GREEN</div></div>","66,71,82",1500,test,,,congruent,TRUE,71,,,500,green,green,-1,-1,poldrack-single-stim,607,1050022,0.0-606.0,0e4cc311-e50a-46a6-8a44-acd3e6e28b84,,500,500,fixation,,<div class = centerbox><div class = fixation>+</div></div>,none,500,test,,,,,,,,,,,848,82,poldrack-categorize,608,1052535,0.0-607.0,0e4cc311-e50a-46a6-8a44-acd3e6e28b84,,1500,250,stim,,"<div class = centerbox><div class = stroop-stim style = ""color:red"">BLUE</div></div>","66,71,82",1500,test,,,incongruent,TRUE,82,,,500,red,blue,-1,-1,poldrack-single-stim,609,1053295,0.0-608.0,0e4cc311-e50a-46a6-8a44-acd3e6e28b84,,500,500,fixation,,<div class = centerbox><div class = fixation>+</div></div>,none,500,test,,,,,,,,,,,848,66,poldrack-categorize,610,1055809,0.0-609.0,0e4cc311-e50a-46a6-8a44-acd3e6e28b84,,1500,250,stim,,"<div class = centerbox><div class = stroop-stim style = ""color:blue"">BLUE</div></div>","66,71,82",1500,test,,,congruent,TRUE,66,,,500,blue,blue,-1,-1,poldrack-single-stim,611,1056569,0.0-610.0,0e4cc311-e50a-46a6-8a44-acd3e6e28b84,,500,500,fixation,,<div class = centerbox><div class = fixation>+</div></div>,none,500,test,,,,,,,,,,,916,71,poldrack-categorize,612,1059084,0.0-611.0,0e4cc311-e50a-46a6-8a44-acd3e6e28b84,,1500,250,stim,,"<div class = centerbox><div class = stroop-stim style = ""color:green"">RED</div></div>","66,71,82",1500,test,,,incongruent,TRUE,71,,,500,green,red,-1,-1,poldrack-single-stim,613,1059843,0.0-612.0,0e4cc311-e50a-46a6-8a44-acd3e6e28b84,,500,500,fixation,,<div class = centerbox><div class = fixation>+</div></div>,none,500,test,,,,,,,,,,,409,71,poldrack-categorize,614,1062357,0.0-613.0,0e4cc311-e50a-46a6-8a44-acd3e6e28b84,,1500,250,stim,,"<div class = centerbox><div class = stroop-stim style = ""color:green"">GREEN</div></div>","66,71,82",1500,test,,,congruent,TRUE,71,,,500,green,green,-1,-1,poldrack-single-stim,615,1063117,0.0-614.0,0e4cc311-e50a-46a6-8a44-acd3e6e28b84,,500,500,fixation,,<div class = centerbox><div class = fixation>+</div></div>,none,500,test,,,,,,,,,,,656,71,poldrack-categorize,616,1065630,0.0-615.0,0e4cc311-e50a-46a6-8a44-acd3e6e28b84,,1500,250,stim,,"<div class = centerbox><div class = stroop-stim style = ""color:green"">RED</div></div>","66,71,82",1500,test,,,incongruent,TRUE,71,,,500,green,red,-1,-1,poldrack-single-stim,617,1066391,0.0-616.0,0e4cc311-e50a-46a6-8a44-acd3e6e28b84,,500,500,fixation,,<div class = centerbox><div class = fixation>+</div></div>,none,500,test,,,,,,,,,,,902,82,poldrack-categorize,618,1068904,0.0-617.0,0e4cc311-e50a-46a6-8a44-acd3e6e28b84,,1500,250,stim,,"<div class = centerbox><div class = stroop-stim style = ""color:red"">BLUE</div></div>","66,71,82",1500,test,,,incongruent,TRUE,82,,,500,red,blue,-1,-1,poldrack-single-stim,619,1069665,0.0-618.0,0e4cc311-e50a-46a6-8a44-acd3e6e28b84,,500,500,fixation,,<div class = centerbox><div class = fixation>+</div></div>,none,500,test,,,,,,,,,,,548,71,poldrack-categorize,620,1072178,0.0-619.0,0e4cc311-e50a-46a6-8a44-acd3e6e28b84,,1500,250,stim,,"<div class = centerbox><div class = stroop-stim style = ""color:green"">GREEN</div></div>","66,71,82",1500,test,,,congruent,TRUE,71,,,500,green,green,-1,-1,poldrack-single-stim,621,1072938,0.0-620.0,0e4cc311-e50a-46a6-8a44-acd3e6e28b84,,500,500,fixation,,<div class = centerbox><div class = fixation>+</div></div>,none,500,test,,,,,,,,,,,514,71,poldrack-categorize,622,1075451,0.0-621.0,0e4cc311-e50a-46a6-8a44-acd3e6e28b84,,1500,250,stim,,"<div class = centerbox><div class = stroop-stim style = ""color:green"">RED</div></div>","66,71,82",1500,test,,,incongruent,TRUE,71,,,500,green,red,-1,-1,poldrack-single-stim,623,1076206,0.0-622.0,0e4cc311-e50a-46a6-8a44-acd3e6e28b84,,500,500,fixation,,<div class = centerbox><div class = fixation>+</div></div>,none,500,test,,,,,,,,,,,685,66,poldrack-categorize,624,1078720,0.0-623.0,0e4cc311-e50a-46a6-8a44-acd3e6e28b84,,1500,250,stim,,"<div class = centerbox><div class = stroop-stim style = ""color:blue"">GREEN</div></div>","66,71,82",1500,test,,,incongruent,TRUE,66,,,500,blue,green,-1,-1,poldrack-single-stim,625,1079480,0.0-624.0,0e4cc311-e50a-46a6-8a44-acd3e6e28b84,,500,500,fixation,,<div class = centerbox><div class = fixation>+</div></div>,none,500,test,,,,,,,,,,,548,71,poldrack-categorize,626,1081988,0.0-625.0,0e4cc311-e50a-46a6-8a44-acd3e6e28b84,,1500,250,stim,,"<div class = centerbox><div class = stroop-stim style = ""color:green"">GREEN</div></div>","66,71,82",1500,test,,,congruent,TRUE,71,,,500,green,green,-1,-1,poldrack-single-stim,627,1082748,0.0-626.0,0e4cc311-e50a-46a6-8a44-acd3e6e28b84,,500,500,fixation,,<div class = centerbox><div class = fixation>+</div></div>,none,500,test,,,,,,,,,,,863,66,poldrack-categorize,628,1085262,0.0-627.0,0e4cc311-e50a-46a6-8a44-acd3e6e28b84,,1500,250,stim,,"<div class = centerbox><div class = stroop-stim style = ""color:blue"">RED</div></div>","66,71,82",1500,test,,,incongruent,TRUE,66,,,500,blue,red,-1,-1,poldrack-single-stim,629,1086018,0.0-628.0,0e4cc311-e50a-46a6-8a44-acd3e6e28b84,,500,500,fixation,,<div class = centerbox><div class = fixation>+</div></div>,none,500,test,,,,,,,,,,,547,71,poldrack-categorize,630,1088530,0.0-629.0,0e4cc311-e50a-46a6-8a44-acd3e6e28b84,,1500,250,stim,,"<div class = centerbox><div class = stroop-stim style = ""color:green"">BLUE</div></div>","66,71,82",1500,test,,,incongruent,TRUE,71,,,500,green,blue,-1,-1,poldrack-single-stim,631,1089290,0.0-630.0,0e4cc311-e50a-46a6-8a44-acd3e6e28b84,,500,500,fixation,,<div class = centerbox><div class = fixation>+</div></div>,none,500,test,,,,,,,,,,,1137,66,poldrack-categorize,632,1091803,0.0-631.0,0e4cc311-e50a-46a6-8a44-acd3e6e28b84,,1500,250,stim,,"<div class = centerbox><div class = stroop-stim style = ""color:blue"">RED</div></div>","66,71,82",1500,test,,,incongruent,TRUE,66,,,500,blue,red,29299,,survey-text,633,1121360,0.0-633.0,0e4cc311-e50a-46a6-8a44-acd3e6e28b84,,,,post task questions,,,,,,,,,,,"{""Q0"":""I was told to indicate the color of the word, not the color the word said."",""Q1"":""No.""}",,,,,2148,13,poldrack-text,634,1124514,0.0-634.0,0e4cc311-e50a-46a6-8a44-acd3e6e28b84,<div class = centerbox><p class = center-block-text>Thanks for completing this task!</p><p class = center-block-text>Press <strong>enter</strong> to continue.</p></div>,2148,0,end,,,,,,,,,,,,stroop,,,,TRUE328411,13,text,635,1452968,0.0-635.0,0e4cc311-e50a-46a6-8a44-acd3e6e28b84,,,,,,,,,,,,,,,,,,,,