"rt","key_press","trial_type","trial_index","time_elapsed","internal_node_id","subject","text","block_duration","timing_post_trial","trial_id","view_history","stimulus","possible_responses","stim_duration","exp_stage","correct","correct_response","feedback_duration","condition","stim_color","stim_word","responses","exp_id","credit_var"
"2127","13","text","0","2129","0.0-0.0","d07c826f-7d4f-422b-a92a-f01f4bc79eb6","","","","","","","","","","","","","","","","","",""
"8521","13","poldrack-text","1","11656","0.0-1.0-0.0","d07c826f-7d4f-422b-a92a-f01f4bc79eb6","<div class = centerbox><p class = center-block-text>Welcome to the experiment. This experiment will take about 8 minutes. Press <strong>enter</strong> to begin.</p></div>","8521","0","instruction","","","","","","","","","","","","","",""
"48236","","poldrack-instructions","2","59893","0.0-1.0-1.0","d07c826f-7d4f-422b-a92a-f01f4bc79eb6","","","","instruction","[{""page_index"":0,""viewing_time"":48236}]","","","","","","","","","","","","",""
"9996","13","poldrack-text","3","70892","0.0-2.0","d07c826f-7d4f-422b-a92a-f01f4bc79eb6","<div class = centerbox><p class = block-text>We will start with a few practice trials. Remember, press the key corresponding to the <strong>ink</strong> color of the word: ""r"" for words colored red, ""b"" for words colored blue, and ""g"" for words colored green.</p><p class = block-text>Press <strong>enter</strong> to begin practice.</p></div>","9996","1000","practice_intro","","","","","","","","","","","","","",""
"-1","-1","poldrack-single-stim","4","72401","0.0-3.0","d07c826f-7d4f-422b-a92a-f01f4bc79eb6","","500","500","fixation","","<div class = centerbox><div class = fixation>+</div></div>","none","500","practice","","","","","","","","",""
"794","82","poldrack-categorize","5","74907","0.0-4.0","d07c826f-7d4f-422b-a92a-f01f4bc79eb6","","1500","250","stim","","<div class = centerbox><div class = stroop-stim style = ""color:blue"">RED</div></div>","66,71,82","1500","practice","false","66","500","incongruent","blue","red","","",""
"-1","-1","poldrack-single-stim","6","75668","0.0-5.0","d07c826f-7d4f-422b-a92a-f01f4bc79eb6","","500","500","fixation","","<div class = centerbox><div class = fixation>+</div></div>","none","500","practice","","","","","","","","",""
"-1","-1","poldrack-categorize","7","78181","0.0-6.0","d07c826f-7d4f-422b-a92a-f01f4bc79eb6","","1500","250","stim","","<div class = centerbox><div class = stroop-stim style = ""color:red"">GREEN</div></div>","66,71,82","1500","practice","false","82","500","incongruent","red","green","","",""
"-1","-1","poldrack-single-stim","8","78941","0.0-7.0","d07c826f-7d4f-422b-a92a-f01f4bc79eb6","","500","500","fixation","","<div class = centerbox><div class = fixation>+</div></div>","none","500","practice","","","","","","","","",""
"1368","71","poldrack-categorize","9","81449","0.0-8.0","d07c826f-7d4f-422b-a92a-f01f4bc79eb6","","1500","250","stim","","<div class = centerbox><div class = stroop-stim style = ""color:green"">RED</div></div>","66,71,82","1500","practice","true","71","500","incongruent","green","red","","",""
"-1","-1","poldrack-single-stim","10","82210","0.0-9.0","d07c826f-7d4f-422b-a92a-f01f4bc79eb6","","500","500","fixation","","<div class = centerbox><div class = fixation>+</div></div>","none","500","practice","","","","","","","","",""
"1128","71","poldrack-categorize","11","84723","0.0-10.0","d07c826f-7d4f-422b-a92a-f01f4bc79eb6","","1500","250","stim","","<div class = centerbox><div class = stroop-stim style = ""color:green"">GREEN</div></div>","66,71,82","1500","practice","true","71","500","congruent","green","green","","",""
"-1","-1","poldrack-single-stim","12","85483","0.0-11.0","d07c826f-7d4f-422b-a92a-f01f4bc79eb6","","500","500","fixation","","<div class = centerbox><div class = fixation>+</div></div>","none","500","practice","","","","","","","","",""
"925","66","poldrack-categorize","13","87991","0.0-12.0","d07c826f-7d4f-422b-a92a-f01f4bc79eb6","","1500","250","stim","","<div class = centerbox><div class = stroop-stim style = ""color:blue"">BLUE</div></div>","66,71,82","1500","practice","true","66","500","congruent","blue","blue","","",""
"-1","-1","poldrack-single-stim","14","88751","0.0-13.0","d07c826f-7d4f-422b-a92a-f01f4bc79eb6","","500","500","fixation","","<div class = centerbox><div class = fixation>+</div></div>","none","500","practice","","","","","","","","",""
"913","66","poldrack-categorize","15","91264","0.0-14.0","d07c826f-7d4f-422b-a92a-f01f4bc79eb6","","1500","250","stim","","<div class = centerbox><div class = stroop-stim style = ""color:blue"">BLUE</div></div>","66,71,82","1500","practice","true","66","500","congruent","blue","blue","","",""
"-1","-1","poldrack-single-stim","16","92021","0.0-15.0","d07c826f-7d4f-422b-a92a-f01f4bc79eb6","","500","500","fixation","","<div class = centerbox><div class = fixation>+</div></div>","none","500","practice","","","","","","","","",""
"-1","-1","poldrack-categorize","17","94532","0.0-16.0","d07c826f-7d4f-422b-a92a-f01f4bc79eb6","","1500","250","stim","","<div class = centerbox><div class = stroop-stim style = ""color:red"">RED</div></div>","66,71,82","1500","practice","false","82","500","congruent","red","red","","",""
"-1","-1","poldrack-single-stim","18","95293","0.0-17.0","d07c826f-7d4f-422b-a92a-f01f4bc79eb6","","500","500","fixation","","<div class = centerbox><div class = fixation>+</div></div>","none","500","practice","","","","","","","","",""
"788","82","poldrack-categorize","19","97806","0.0-18.0","d07c826f-7d4f-422b-a92a-f01f4bc79eb6","","1500","250","stim","","<div class = centerbox><div class = stroop-stim style = ""color:blue"">RED</div></div>","66,71,82","1500","practice","false","66","500","incongruent","blue","red","","",""
"-1","-1","poldrack-single-stim","20","98567","0.0-19.0","d07c826f-7d4f-422b-a92a-f01f4bc79eb6","","500","500","fixation","","<div class = centerbox><div class = fixation>+</div></div>","none","500","practice","","","","","","","","",""
"745","71","poldrack-categorize","21","101080","0.0-20.0","d07c826f-7d4f-422b-a92a-f01f4bc79eb6","","1500","250","stim","","<div class = centerbox><div class = stroop-stim style = ""color:green"">GREEN</div></div>","66,71,82","1500","practice","true","71","500","congruent","green","green","","",""
"-1","-1","poldrack-single-stim","22","101839","0.0-21.0","d07c826f-7d4f-422b-a92a-f01f4bc79eb6","","500","500","fixation","","<div class = centerbox><div class = fixation>+</div></div>","none","500","practice","","","","","","","","",""
"924","82","poldrack-categorize","23","104348","0.0-22.0","d07c826f-7d4f-422b-a92a-f01f4bc79eb6","","1500","250","stim","","<div class = centerbox><div class = stroop-stim style = ""color:red"">RED</div></div>","66,71,82","1500","practice","true","82","500","congruent","red","red","","",""
"-1","-1","poldrack-single-stim","24","105108","0.0-23.0","d07c826f-7d4f-422b-a92a-f01f4bc79eb6","","500","500","fixation","","<div class = centerbox><div class = fixation>+</div></div>","none","500","practice","","","","","","","","",""
"947","82","poldrack-categorize","25","107616","0.0-24.0","d07c826f-7d4f-422b-a92a-f01f4bc79eb6","","1500","250","stim","","<div class = centerbox><div class = stroop-stim style = ""color:red"">GREEN</div></div>","66,71,82","1500","practice","true","82","500","incongruent","red","green","","",""
"-1","-1","poldrack-single-stim","26","108376","0.0-25.0","d07c826f-7d4f-422b-a92a-f01f4bc79eb6","","500","500","fixation","","<div class = centerbox><div class = fixation>+</div></div>","none","500","practice","","","","","","","","",""
"1159","66","poldrack-categorize","27","110890","0.0-26.0","d07c826f-7d4f-422b-a92a-f01f4bc79eb6","","1500","250","stim","","<div class = centerbox><div class = stroop-stim style = ""color:blue"">BLUE</div></div>","66,71,82","1500","practice","true","66","500","congruent","blue","blue","","",""
"-1","-1","poldrack-single-stim","28","111648","0.0-27.0","d07c826f-7d4f-422b-a92a-f01f4bc79eb6","","500","500","fixation","","<div class = centerbox><div class = fixation>+</div></div>","none","500","practice","","","","","","","","",""
"883","82","poldrack-categorize","29","114154","0.0-28.0","d07c826f-7d4f-422b-a92a-f01f4bc79eb6","","1500","250","stim","","<div class = centerbox><div class = stroop-stim style = ""color:red"">BLUE</div></div>","66,71,82","1500","practice","true","82","500","incongruent","red","blue","","",""
"-1","-1","poldrack-single-stim","30","114909","0.0-29.0","d07c826f-7d4f-422b-a92a-f01f4bc79eb6","","500","500","fixation","","<div class = centerbox><div class = fixation>+</div></div>","none","500","practice","","","","","","","","",""
"913","71","poldrack-categorize","31","117420","0.0-30.0","d07c826f-7d4f-422b-a92a-f01f4bc79eb6","","1500","250","stim","","<div class = centerbox><div class = stroop-stim style = ""color:green"">RED</div></div>","66,71,82","1500","practice","true","71","500","incongruent","green","red","","",""
"-1","-1","poldrack-single-stim","32","118175","0.0-31.0","d07c826f-7d4f-422b-a92a-f01f4bc79eb6","","500","500","fixation","","<div class = centerbox><div class = fixation>+</div></div>","none","500","practice","","","","","","","","",""
"776","82","poldrack-categorize","33","120688","0.0-32.0","d07c826f-7d4f-422b-a92a-f01f4bc79eb6","","1500","250","stim","","<div class = centerbox><div class = stroop-stim style = ""color:red"">RED</div></div>","66,71,82","1500","practice","true","82","500","congruent","red","red","","",""
"-1","-1","poldrack-single-stim","34","121448","0.0-33.0","d07c826f-7d4f-422b-a92a-f01f4bc79eb6","","500","500","fixation","","<div class = centerbox><div class = fixation>+</div></div>","none","500","practice","","","","","","","","",""
"654","66","poldrack-categorize","35","123962","0.0-34.0","d07c826f-7d4f-422b-a92a-f01f4bc79eb6","","1500","250","stim","","<div class = centerbox><div class = stroop-stim style = ""color:blue"">BLUE</div></div>","66,71,82","1500","practice","true","66","500","congruent","blue","blue","","",""
"-1","-1","poldrack-single-stim","36","124722","0.0-35.0","d07c826f-7d4f-422b-a92a-f01f4bc79eb6","","500","500","fixation","","<div class = centerbox><div class = fixation>+</div></div>","none","500","practice","","","","","","","","",""
"908","71","poldrack-categorize","37","127237","0.0-36.0","d07c826f-7d4f-422b-a92a-f01f4bc79eb6","","1500","250","stim","","<div class = centerbox><div class = stroop-stim style = ""color:green"">BLUE</div></div>","66,71,82","1500","practice","true","71","500","incongruent","green","blue","","",""
"-1","-1","poldrack-single-stim","38","127996","0.0-37.0","d07c826f-7d4f-422b-a92a-f01f4bc79eb6","","500","500","fixation","","<div class = centerbox><div class = fixation>+</div></div>","none","500","practice","","","","","","","","",""
"641","66","poldrack-categorize","39","130511","0.0-38.0","d07c826f-7d4f-422b-a92a-f01f4bc79eb6","","1500","250","stim","","<div class = centerbox><div class = stroop-stim style = ""color:blue"">GREEN</div></div>","66,71,82","1500","practice","true","66","500","incongruent","blue","green","","",""
"-1","-1","poldrack-single-stim","40","131270","0.0-39.0","d07c826f-7d4f-422b-a92a-f01f4bc79eb6","","500","500","fixation","","<div class = centerbox><div class = fixation>+</div></div>","none","500","practice","","","","","","","","",""
"1175","71","poldrack-categorize","41","133783","0.0-40.0","d07c826f-7d4f-422b-a92a-f01f4bc79eb6","","1500","250","stim","","<div class = centerbox><div class = stroop-stim style = ""color:green"">BLUE</div></div>","66,71,82","1500","practice","true","71","500","incongruent","green","blue","","",""
"-1","-1","poldrack-single-stim","42","134544","0.0-41.0","d07c826f-7d4f-422b-a92a-f01f4bc79eb6","","500","500","fixation","","<div class = centerbox><div class = fixation>+</div></div>","none","500","practice","","","","","","","","",""
"766","82","poldrack-categorize","43","137057","0.0-42.0","d07c826f-7d4f-422b-a92a-f01f4bc79eb6","","1500","250","stim","","<div class = centerbox><div class = stroop-stim style = ""color:red"">RED</div></div>","66,71,82","1500","practice","true","82","500","congruent","red","red","","",""
"-1","-1","poldrack-single-stim","44","137817","0.0-43.0","d07c826f-7d4f-422b-a92a-f01f4bc79eb6","","500","500","fixation","","<div class = centerbox><div class = fixation>+</div></div>","none","500","practice","","","","","","","","",""
"892","66","poldrack-categorize","45","140331","0.0-44.0","d07c826f-7d4f-422b-a92a-f01f4bc79eb6","","1500","250","stim","","<div class = centerbox><div class = stroop-stim style = ""color:blue"">GREEN</div></div>","66,71,82","1500","practice","true","66","500","incongruent","blue","green","","",""
"-1","-1","poldrack-single-stim","46","141091","0.0-45.0","d07c826f-7d4f-422b-a92a-f01f4bc79eb6","","500","500","fixation","","<div class = centerbox><div class = fixation>+</div></div>","none","500","practice","","","","","","","","",""
"746","71","poldrack-categorize","47","143606","0.0-46.0","d07c826f-7d4f-422b-a92a-f01f4bc79eb6","","1500","250","stim","","<div class = centerbox><div class = stroop-stim style = ""color:green"">GREEN</div></div>","66,71,82","1500","practice","true","71","500","congruent","green","green","","",""
"-1","-1","poldrack-single-stim","48","144365","0.0-47.0","d07c826f-7d4f-422b-a92a-f01f4bc79eb6","","500","500","fixation","","<div class = centerbox><div class = fixation>+</div></div>","none","500","practice","","","","","","","","",""
"728","82","poldrack-categorize","49","146878","0.0-48.0","d07c826f-7d4f-422b-a92a-f01f4bc79eb6","","1500","250","stim","","<div class = centerbox><div class = stroop-stim style = ""color:red"">BLUE</div></div>","66,71,82","1500","practice","true","82","500","incongruent","red","blue","","",""
"-1","-1","poldrack-single-stim","50","147637","0.0-49.0","d07c826f-7d4f-422b-a92a-f01f4bc79eb6","","500","500","fixation","","<div class = centerbox><div class = fixation>+</div></div>","none","500","practice","","","","","","","","",""
"635","71","poldrack-categorize","51","150146","0.0-50.0","d07c826f-7d4f-422b-a92a-f01f4bc79eb6","","1500","250","stim","","<div class = centerbox><div class = stroop-stim style = ""color:green"">GREEN</div></div>","66,71,82","1500","practice","true","71","500","congruent","green","green","","",""
"6747","13","poldrack-text","52","157149","0.0-52.0","d07c826f-7d4f-422b-a92a-f01f4bc79eb6","<div class = centerbox><p class = center-block-text>We will now start the test. Respond exactly like you did during practice.</p><p class = center-block-text>Press <strong>enter</strong> to begin the test.</p></div>","6747","1000","test_intro","","","","","","","","","","","","","",""
"-1","-1","poldrack-single-stim","53","158656","0.0-53.0","d07c826f-7d4f-422b-a92a-f01f4bc79eb6","","500","500","fixation","","<div class = centerbox><div class = fixation>+</div></div>","none","500","test","","","","","","","","",""
"684","71","poldrack-categorize","54","161165","0.0-54.0","d07c826f-7d4f-422b-a92a-f01f4bc79eb6","","1500","250","stim","","<div class = centerbox><div class = stroop-stim style = ""color:green"">GREEN</div></div>","66,71,82","1500","test","true","71","500","congruent","green","green","","",""
"-1","-1","poldrack-single-stim","55","161922","0.0-55.0","d07c826f-7d4f-422b-a92a-f01f4bc79eb6","","500","500","fixation","","<div class = centerbox><div class = fixation>+</div></div>","none","500","test","","","","","","","","",""
"1053","71","poldrack-categorize","56","164431","0.0-56.0","d07c826f-7d4f-422b-a92a-f01f4bc79eb6","","1500","250","stim","","<div class = centerbox><div class = stroop-stim style = ""color:green"">RED</div></div>","66,71,82","1500","test","true","71","500","incongruent","green","red","","",""
"-1","-1","poldrack-single-stim","57","165189","0.0-57.0","d07c826f-7d4f-422b-a92a-f01f4bc79eb6","","500","500","fixation","","<div class = centerbox><div class = fixation>+</div></div>","none","500","test","","","","","","","","",""
"473","82","poldrack-categorize","58","167699","0.0-58.0","d07c826f-7d4f-422b-a92a-f01f4bc79eb6","","1500","250","stim","","<div class = centerbox><div class = stroop-stim style = ""color:red"">RED</div></div>","66,71,82","1500","test","true","82","500","congruent","red","red","","",""
"-1","-1","poldrack-single-stim","59","168460","0.0-59.0","d07c826f-7d4f-422b-a92a-f01f4bc79eb6","","500","500","fixation","","<div class = centerbox><div class = fixation>+</div></div>","none","500","test","","","","","","","","",""
"721","66","poldrack-categorize","60","170973","0.0-60.0","d07c826f-7d4f-422b-a92a-f01f4bc79eb6","","1500","250","stim","","<div class = centerbox><div class = stroop-stim style = ""color:red"">BLUE</div></div>","66,71,82","1500","test","false","82","500","incongruent","red","blue","","",""
"-1","-1","poldrack-single-stim","61","171734","0.0-61.0","d07c826f-7d4f-422b-a92a-f01f4bc79eb6","","500","500","fixation","","<div class = centerbox><div class = fixation>+</div></div>","none","500","test","","","","","","","","",""
"621","66","poldrack-categorize","62","174247","0.0-62.0","d07c826f-7d4f-422b-a92a-f01f4bc79eb6","","1500","250","stim","","<div class = centerbox><div class = stroop-stim style = ""color:blue"">BLUE</div></div>","66,71,82","1500","test","true","66","500","congruent","blue","blue","","",""
"-1","-1","poldrack-single-stim","63","175007","0.0-63.0","d07c826f-7d4f-422b-a92a-f01f4bc79eb6","","500","500","fixation","","<div class = centerbox><div class = fixation>+</div></div>","none","500","test","","","","","","","","",""
"643","66","poldrack-categorize","64","177520","0.0-64.0","d07c826f-7d4f-422b-a92a-f01f4bc79eb6","","1500","250","stim","","<div class = centerbox><div class = stroop-stim style = ""color:blue"">RED</div></div>","66,71,82","1500","test","true","66","500","incongruent","blue","red","","",""
"-1","-1","poldrack-single-stim","65","178281","0.0-65.0","d07c826f-7d4f-422b-a92a-f01f4bc79eb6","","500","500","fixation","","<div class = centerbox><div class = fixation>+</div></div>","none","500","test","","","","","","","","",""
"617","66","poldrack-categorize","66","180790","0.0-66.0","d07c826f-7d4f-422b-a92a-f01f4bc79eb6","","1500","250","stim","","<div class = centerbox><div class = stroop-stim style = ""color:blue"">BLUE</div></div>","66,71,82","1500","test","true","66","500","congruent","blue","blue","","",""
"-1","-1","poldrack-single-stim","67","181549","0.0-67.0","d07c826f-7d4f-422b-a92a-f01f4bc79eb6","","500","500","fixation","","<div class = centerbox><div class = fixation>+</div></div>","none","500","test","","","","","","","","",""
"901","66","poldrack-categorize","68","184062","0.0-68.0","d07c826f-7d4f-422b-a92a-f01f4bc79eb6","","1500","250","stim","","<div class = centerbox><div class = stroop-stim style = ""color:blue"">GREEN</div></div>","66,71,82","1500","test","true","66","500","incongruent","blue","green","","",""
"-1","-1","poldrack-single-stim","69","184823","0.0-69.0","d07c826f-7d4f-422b-a92a-f01f4bc79eb6","","500","500","fixation","","<div class = centerbox><div class = fixation>+</div></div>","none","500","test","","","","","","","","",""
"884","66","poldrack-categorize","70","187336","0.0-70.0","d07c826f-7d4f-422b-a92a-f01f4bc79eb6","","1500","250","stim","","<div class = centerbox><div class = stroop-stim style = ""color:blue"">RED</div></div>","66,71,82","1500","test","true","66","500","incongruent","blue","red","","",""
"-1","-1","poldrack-single-stim","71","188097","0.0-71.0","d07c826f-7d4f-422b-a92a-f01f4bc79eb6","","500","500","fixation","","<div class = centerbox><div class = fixation>+</div></div>","none","500","test","","","","","","","","",""
"921","82","poldrack-categorize","72","190610","0.0-72.0","d07c826f-7d4f-422b-a92a-f01f4bc79eb6","","1500","250","stim","","<div class = centerbox><div class = stroop-stim style = ""color:red"">RED</div></div>","66,71,82","1500","test","true","82","500","congruent","red","red","","",""
"-1","-1","poldrack-single-stim","73","191368","0.0-73.0","d07c826f-7d4f-422b-a92a-f01f4bc79eb6","","500","500","fixation","","<div class = centerbox><div class = fixation>+</div></div>","none","500","test","","","","","","","","",""
"740","82","poldrack-categorize","74","193878","0.0-74.0","d07c826f-7d4f-422b-a92a-f01f4bc79eb6","","1500","250","stim","","<div class = centerbox><div class = stroop-stim style = ""color:red"">RED</div></div>","66,71,82","1500","test","true","82","500","congruent","red","red","","",""
"-1","-1","poldrack-single-stim","75","194639","0.0-75.0","d07c826f-7d4f-422b-a92a-f01f4bc79eb6","","500","500","fixation","","<div class = centerbox><div class = fixation>+</div></div>","none","500","test","","","","","","","","",""
"707","66","poldrack-categorize","76","197152","0.0-76.0","d07c826f-7d4f-422b-a92a-f01f4bc79eb6","","1500","250","stim","","<div class = centerbox><div class = stroop-stim style = ""color:blue"">BLUE</div></div>","66,71,82","1500","test","true","66","500","congruent","blue","blue","","",""
"-1","-1","poldrack-single-stim","77","197912","0.0-77.0","d07c826f-7d4f-422b-a92a-f01f4bc79eb6","","500","500","fixation","","<div class = centerbox><div class = fixation>+</div></div>","none","500","test","","","","","","","","",""
"1114","71","poldrack-categorize","78","200425","0.0-78.0","d07c826f-7d4f-422b-a92a-f01f4bc79eb6","","1500","250","stim","","<div class = centerbox><div class = stroop-stim style = ""color:green"">GREEN</div></div>","66,71,82","1500","test","true","71","500","congruent","green","green","","",""
"-1","-1","poldrack-single-stim","79","201186","0.0-79.0","d07c826f-7d4f-422b-a92a-f01f4bc79eb6","","500","500","fixation","","<div class = centerbox><div class = fixation>+</div></div>","none","500","test","","","","","","","","",""
"462","71","poldrack-categorize","80","203700","0.0-80.0","d07c826f-7d4f-422b-a92a-f01f4bc79eb6","","1500","250","stim","","<div class = centerbox><div class = stroop-stim style = ""color:green"">RED</div></div>","66,71,82","1500","test","true","71","500","incongruent","green","red","","",""
"-1","-1","poldrack-single-stim","81","204454","0.0-81.0","d07c826f-7d4f-422b-a92a-f01f4bc79eb6","","500","500","fixation","","<div class = centerbox><div class = fixation>+</div></div>","none","500","test","","","","","","","","",""
"554","66","poldrack-categorize","82","206967","0.0-82.0","d07c826f-7d4f-422b-a92a-f01f4bc79eb6","","1500","250","stim","","<div class = centerbox><div class = stroop-stim style = ""color:blue"">RED</div></div>","66,71,82","1500","test","true","66","500","incongruent","blue","red","","",""
"-1","-1","poldrack-single-stim","83","207728","0.0-83.0","d07c826f-7d4f-422b-a92a-f01f4bc79eb6","","500","500","fixation","","<div class = centerbox><div class = fixation>+</div></div>","none","500","test","","","","","","","","",""
"792","71","poldrack-categorize","84","210241","0.0-84.0","d07c826f-7d4f-422b-a92a-f01f4bc79eb6","","1500","250","stim","","<div class = centerbox><div class = stroop-stim style = ""color:green"">GREEN</div></div>","66,71,82","1500","test","true","71","500","congruent","green","green","","",""
"-1","-1","poldrack-single-stim","85","211002","0.0-85.0","d07c826f-7d4f-422b-a92a-f01f4bc79eb6","","500","500","fixation","","<div class = centerbox><div class = fixation>+</div></div>","none","500","test","","","","","","","","",""
"974","71","poldrack-categorize","86","213515","0.0-86.0","d07c826f-7d4f-422b-a92a-f01f4bc79eb6","","1500","250","stim","","<div class = centerbox><div class = stroop-stim style = ""color:red"">GREEN</div></div>","66,71,82","1500","test","false","82","500","incongruent","red","green","","",""
"-1","-1","poldrack-single-stim","87","214276","0.0-87.0","d07c826f-7d4f-422b-a92a-f01f4bc79eb6","","500","500","fixation","","<div class = centerbox><div class = fixation>+</div></div>","none","500","test","","","","","","","","",""
"916","82","poldrack-categorize","88","216788","0.0-88.0","d07c826f-7d4f-422b-a92a-f01f4bc79eb6","","1500","250","stim","","<div class = centerbox><div class = stroop-stim style = ""color:red"">BLUE</div></div>","66,71,82","1500","test","true","82","500","incongruent","red","blue","","",""
"-1","-1","poldrack-single-stim","89","217549","0.0-89.0","d07c826f-7d4f-422b-a92a-f01f4bc79eb6","","500","500","fixation","","<div class = centerbox><div class = fixation>+</div></div>","none","500","test","","","","","","","","",""
"458","82","poldrack-categorize","90","220060","0.0-90.0","d07c826f-7d4f-422b-a92a-f01f4bc79eb6","","1500","250","stim","","<div class = centerbox><div class = stroop-stim style = ""color:red"">BLUE</div></div>","66,71,82","1500","test","true","82","500","incongruent","red","blue","","",""
"-1","-1","poldrack-single-stim","91","220813","0.0-91.0","d07c826f-7d4f-422b-a92a-f01f4bc79eb6","","500","500","fixation","","<div class = centerbox><div class = fixation>+</div></div>","none","500","test","","","","","","","","",""
"396","82","poldrack-categorize","92","223325","0.0-92.0","d07c826f-7d4f-422b-a92a-f01f4bc79eb6","","1500","250","stim","","<div class = centerbox><div class = stroop-stim style = ""color:red"">RED</div></div>","66,71,82","1500","test","true","82","500","congruent","red","red","","",""
"-1","-1","poldrack-single-stim","93","224085","0.0-93.0","d07c826f-7d4f-422b-a92a-f01f4bc79eb6","","500","500","fixation","","<div class = centerbox><div class = fixation>+</div></div>","none","500","test","","","","","","","","",""
"386","82","poldrack-categorize","94","226598","0.0-94.0","d07c826f-7d4f-422b-a92a-f01f4bc79eb6","","1500","250","stim","","<div class = centerbox><div class = stroop-stim style = ""color:red"">RED</div></div>","66,71,82","1500","test","true","82","500","congruent","red","red","","",""
"-1","-1","poldrack-single-stim","95","227358","0.0-95.0","d07c826f-7d4f-422b-a92a-f01f4bc79eb6","","500","500","fixation","","<div class = centerbox><div class = fixation>+</div></div>","none","500","test","","","","","","","","",""
"1215","71","poldrack-categorize","96","229870","0.0-96.0","d07c826f-7d4f-422b-a92a-f01f4bc79eb6","","1500","250","stim","","<div class = centerbox><div class = stroop-stim style = ""color:green"">BLUE</div></div>","66,71,82","1500","test","true","71","500","incongruent","green","blue","","",""
"-1","-1","poldrack-single-stim","97","230627","0.0-97.0","d07c826f-7d4f-422b-a92a-f01f4bc79eb6","","500","500","fixation","","<div class = centerbox><div class = fixation>+</div></div>","none","500","test","","","","","","","","",""
"596","66","poldrack-categorize","98","233140","0.0-98.0","d07c826f-7d4f-422b-a92a-f01f4bc79eb6","","1500","250","stim","","<div class = centerbox><div class = stroop-stim style = ""color:blue"">BLUE</div></div>","66,71,82","1500","test","true","66","500","congruent","blue","blue","","",""
"-1","-1","poldrack-single-stim","99","233895","0.0-99.0","d07c826f-7d4f-422b-a92a-f01f4bc79eb6","","500","500","fixation","","<div class = centerbox><div class = fixation>+</div></div>","none","500","test","","","","","","","","",""
"927","82","poldrack-categorize","100","236408","0.0-100.0","d07c826f-7d4f-422b-a92a-f01f4bc79eb6","","1500","250","stim","","<div class = centerbox><div class = stroop-stim style = ""color:red"">RED</div></div>","66,71,82","1500","test","true","82","500","congruent","red","red","","",""
"-1","-1","poldrack-single-stim","101","237163","0.0-101.0","d07c826f-7d4f-422b-a92a-f01f4bc79eb6","","500","500","fixation","","<div class = centerbox><div class = fixation>+</div></div>","none","500","test","","","","","","","","",""
"1299","71","poldrack-categorize","102","239676","0.0-102.0","d07c826f-7d4f-422b-a92a-f01f4bc79eb6","","1500","250","stim","","<div class = centerbox><div class = stroop-stim style = ""color:green"">RED</div></div>","66,71,82","1500","test","true","71","500","incongruent","green","red","","",""
"-1","-1","poldrack-single-stim","103","240437","0.0-103.0","d07c826f-7d4f-422b-a92a-f01f4bc79eb6","","500","500","fixation","","<div class = centerbox><div class = fixation>+</div></div>","none","500","test","","","","","","","","",""
"898","66","poldrack-categorize","104","242950","0.0-104.0","d07c826f-7d4f-422b-a92a-f01f4bc79eb6","","1500","250","stim","","<div class = centerbox><div class = stroop-stim style = ""color:blue"">RED</div></div>","66,71,82","1500","test","true","66","500","incongruent","blue","red","","",""
"-1","-1","poldrack-single-stim","105","243710","0.0-105.0","d07c826f-7d4f-422b-a92a-f01f4bc79eb6","","500","500","fixation","","<div class = centerbox><div class = fixation>+</div></div>","none","500","test","","","","","","","","",""
"679","71","poldrack-categorize","106","246224","0.0-106.0","d07c826f-7d4f-422b-a92a-f01f4bc79eb6","","1500","250","stim","","<div class = centerbox><div class = stroop-stim style = ""color:green"">RED</div></div>","66,71,82","1500","test","true","71","500","incongruent","green","red","","",""
"-1","-1","poldrack-single-stim","107","246984","0.0-107.0","d07c826f-7d4f-422b-a92a-f01f4bc79eb6","","500","500","fixation","","<div class = centerbox><div class = fixation>+</div></div>","none","500","test","","","","","","","","",""
"877","82","poldrack-categorize","108","249496","0.0-108.0","d07c826f-7d4f-422b-a92a-f01f4bc79eb6","","1500","250","stim","","<div class = centerbox><div class = stroop-stim style = ""color:red"">RED</div></div>","66,71,82","1500","test","true","82","500","congruent","red","red","","",""
"-1","-1","poldrack-single-stim","109","250252","0.0-109.0","d07c826f-7d4f-422b-a92a-f01f4bc79eb6","","500","500","fixation","","<div class = centerbox><div class = fixation>+</div></div>","none","500","test","","","","","","","","",""
"1217","66","poldrack-categorize","110","252765","0.0-110.0","d07c826f-7d4f-422b-a92a-f01f4bc79eb6","","1500","250","stim","","<div class = centerbox><div class = stroop-stim style = ""color:blue"">GREEN</div></div>","66,71,82","1500","test","true","66","500","incongruent","blue","green","","",""
"-1","-1","poldrack-single-stim","111","253526","0.0-111.0","d07c826f-7d4f-422b-a92a-f01f4bc79eb6","","500","500","fixation","","<div class = centerbox><div class = fixation>+</div></div>","none","500","test","","","","","","","","",""
"1145","82","poldrack-categorize","112","256039","0.0-112.0","d07c826f-7d4f-422b-a92a-f01f4bc79eb6","","1500","250","stim","","<div class = centerbox><div class = stroop-stim style = ""color:red"">BLUE</div></div>","66,71,82","1500","test","true","82","500","incongruent","red","blue","","",""
"-1","-1","poldrack-single-stim","113","256800","0.0-113.0","d07c826f-7d4f-422b-a92a-f01f4bc79eb6","","500","500","fixation","","<div class = centerbox><div class = fixation>+</div></div>","none","500","test","","","","","","","","",""
"533","66","poldrack-categorize","114","259313","0.0-114.0","d07c826f-7d4f-422b-a92a-f01f4bc79eb6","","1500","250","stim","","<div class = centerbox><div class = stroop-stim style = ""color:blue"">BLUE</div></div>","66,71,82","1500","test","true","66","500","congruent","blue","blue","","",""
"-1","-1","poldrack-single-stim","115","260073","0.0-115.0","d07c826f-7d4f-422b-a92a-f01f4bc79eb6","","500","500","fixation","","<div class = centerbox><div class = fixation>+</div></div>","none","500","test","","","","","","","","",""
"1051","71","poldrack-categorize","116","262587","0.0-116.0","d07c826f-7d4f-422b-a92a-f01f4bc79eb6","","1500","250","stim","","<div class = centerbox><div class = stroop-stim style = ""color:green"">RED</div></div>","66,71,82","1500","test","true","71","500","incongruent","green","red","","",""
"-1","-1","poldrack-single-stim","117","263347","0.0-117.0","d07c826f-7d4f-422b-a92a-f01f4bc79eb6","","500","500","fixation","","<div class = centerbox><div class = fixation>+</div></div>","none","500","test","","","","","","","","",""
"729","71","poldrack-categorize","118","265860","0.0-118.0","d07c826f-7d4f-422b-a92a-f01f4bc79eb6","","1500","250","stim","","<div class = centerbox><div class = stroop-stim style = ""color:green"">GREEN</div></div>","66,71,82","1500","test","true","71","500","congruent","green","green","","",""
"-1","-1","poldrack-single-stim","119","266621","0.0-119.0","d07c826f-7d4f-422b-a92a-f01f4bc79eb6","","500","500","fixation","","<div class = centerbox><div class = fixation>+</div></div>","none","500","test","","","","","","","","",""
"945","82","poldrack-categorize","120","269134","0.0-120.0","d07c826f-7d4f-422b-a92a-f01f4bc79eb6","","1500","250","stim","","<div class = centerbox><div class = stroop-stim style = ""color:red"">RED</div></div>","66,71,82","1500","test","true","82","500","congruent","red","red","","",""
"-1","-1","poldrack-single-stim","121","269889","0.0-121.0","d07c826f-7d4f-422b-a92a-f01f4bc79eb6","","500","500","fixation","","<div class = centerbox><div class = fixation>+</div></div>","none","500","test","","","","","","","","",""
"938","82","poldrack-categorize","122","272402","0.0-122.0","d07c826f-7d4f-422b-a92a-f01f4bc79eb6","","1500","250","stim","","<div class = centerbox><div class = stroop-stim style = ""color:red"">RED</div></div>","66,71,82","1500","test","true","82","500","congruent","red","red","","",""
"-1","-1","poldrack-single-stim","123","273163","0.0-123.0","d07c826f-7d4f-422b-a92a-f01f4bc79eb6","","500","500","fixation","","<div class = centerbox><div class = fixation>+</div></div>","none","500","test","","","","","","","","",""
"737","71","poldrack-categorize","124","275676","0.0-124.0","d07c826f-7d4f-422b-a92a-f01f4bc79eb6","","1500","250","stim","","<div class = centerbox><div class = stroop-stim style = ""color:green"">GREEN</div></div>","66,71,82","1500","test","true","71","500","congruent","green","green","","",""
"-1","-1","poldrack-single-stim","125","276437","0.0-125.0","d07c826f-7d4f-422b-a92a-f01f4bc79eb6","","500","500","fixation","","<div class = centerbox><div class = fixation>+</div></div>","none","500","test","","","","","","","","",""
"919","66","poldrack-categorize","126","278950","0.0-126.0","d07c826f-7d4f-422b-a92a-f01f4bc79eb6","","1500","250","stim","","<div class = centerbox><div class = stroop-stim style = ""color:blue"">GREEN</div></div>","66,71,82","1500","test","true","66","500","incongruent","blue","green","","",""
"-1","-1","poldrack-single-stim","127","279705","0.0-127.0","d07c826f-7d4f-422b-a92a-f01f4bc79eb6","","500","500","fixation","","<div class = centerbox><div class = fixation>+</div></div>","none","500","test","","","","","","","","",""
"1115","71","poldrack-categorize","128","282218","0.0-128.0","d07c826f-7d4f-422b-a92a-f01f4bc79eb6","","1500","250","stim","","<div class = centerbox><div class = stroop-stim style = ""color:green"">BLUE</div></div>","66,71,82","1500","test","true","71","500","incongruent","green","blue","","",""
"-1","-1","poldrack-single-stim","129","282978","0.0-129.0","d07c826f-7d4f-422b-a92a-f01f4bc79eb6","","500","500","fixation","","<div class = centerbox><div class = fixation>+</div></div>","none","500","test","","","","","","","","",""
"891","82","poldrack-categorize","130","285491","0.0-130.0","d07c826f-7d4f-422b-a92a-f01f4bc79eb6","","1500","250","stim","","<div class = centerbox><div class = stroop-stim style = ""color:red"">GREEN</div></div>","66,71,82","1500","test","true","82","500","incongruent","red","green","","",""
"-1","-1","poldrack-single-stim","131","286252","0.0-131.0","d07c826f-7d4f-422b-a92a-f01f4bc79eb6","","500","500","fixation","","<div class = centerbox><div class = fixation>+</div></div>","none","500","test","","","","","","","","",""
"782","82","poldrack-categorize","132","288765","0.0-132.0","d07c826f-7d4f-422b-a92a-f01f4bc79eb6","","1500","250","stim","","<div class = centerbox><div class = stroop-stim style = ""color:red"">BLUE</div></div>","66,71,82","1500","test","true","82","500","incongruent","red","blue","","",""
"-1","-1","poldrack-single-stim","133","289526","0.0-133.0","d07c826f-7d4f-422b-a92a-f01f4bc79eb6","","500","500","fixation","","<div class = centerbox><div class = fixation>+</div></div>","none","500","test","","","","","","","","",""
"740","71","poldrack-categorize","134","292039","0.0-134.0","d07c826f-7d4f-422b-a92a-f01f4bc79eb6","","1500","250","stim","","<div class = centerbox><div class = stroop-stim style = ""color:blue"">GREEN</div></div>","66,71,82","1500","test","false","66","500","incongruent","blue","green","","",""
"-1","-1","poldrack-single-stim","135","292800","0.0-135.0","d07c826f-7d4f-422b-a92a-f01f4bc79eb6","","500","500","fixation","","<div class = centerbox><div class = fixation>+</div></div>","none","500","test","","","","","","","","",""
"715","66","poldrack-categorize","136","295313","0.0-136.0","d07c826f-7d4f-422b-a92a-f01f4bc79eb6","","1500","250","stim","","<div class = centerbox><div class = stroop-stim style = ""color:blue"">BLUE</div></div>","66,71,82","1500","test","true","66","500","congruent","blue","blue","","",""
"-1","-1","poldrack-single-stim","137","296073","0.0-137.0","d07c826f-7d4f-422b-a92a-f01f4bc79eb6","","500","500","fixation","","<div class = centerbox><div class = fixation>+</div></div>","none","500","test","","","","","","","","",""
"817","71","poldrack-categorize","138","298581","0.0-138.0","d07c826f-7d4f-422b-a92a-f01f4bc79eb6","","1500","250","stim","","<div class = centerbox><div class = stroop-stim style = ""color:green"">BLUE</div></div>","66,71,82","1500","test","true","71","500","incongruent","green","blue","","",""
"-1","-1","poldrack-single-stim","139","299342","0.0-139.0","d07c826f-7d4f-422b-a92a-f01f4bc79eb6","","500","500","fixation","","<div class = centerbox><div class = fixation>+</div></div>","none","500","test","","","","","","","","",""
"564","66","poldrack-categorize","140","301855","0.0-140.0","d07c826f-7d4f-422b-a92a-f01f4bc79eb6","","1500","250","stim","","<div class = centerbox><div class = stroop-stim style = ""color:blue"">BLUE</div></div>","66,71,82","1500","test","true","66","500","congruent","blue","blue","","",""
"-1","-1","poldrack-single-stim","141","302613","0.0-141.0","d07c826f-7d4f-422b-a92a-f01f4bc79eb6","","500","500","fixation","","<div class = centerbox><div class = fixation>+</div></div>","none","500","test","","","","","","","","",""
"520","66","poldrack-categorize","142","305119","0.0-142.0","d07c826f-7d4f-422b-a92a-f01f4bc79eb6","","1500","250","stim","","<div class = centerbox><div class = stroop-stim style = ""color:blue"">GREEN</div></div>","66,71,82","1500","test","true","66","500","incongruent","blue","green","","",""
"-1","-1","poldrack-single-stim","143","305877","0.0-143.0","d07c826f-7d4f-422b-a92a-f01f4bc79eb6","","500","500","fixation","","<div class = centerbox><div class = fixation>+</div></div>","none","500","test","","","","","","","","",""
"788","66","poldrack-categorize","144","308391","0.0-144.0","d07c826f-7d4f-422b-a92a-f01f4bc79eb6","","1500","250","stim","","<div class = centerbox><div class = stroop-stim style = ""color:blue"">BLUE</div></div>","66,71,82","1500","test","true","66","500","congruent","blue","blue","","",""
"-1","-1","poldrack-single-stim","145","309151","0.0-145.0","d07c826f-7d4f-422b-a92a-f01f4bc79eb6","","500","500","fixation","","<div class = centerbox><div class = fixation>+</div></div>","none","500","test","","","","","","","","",""
"866","82","poldrack-categorize","146","311664","0.0-146.0","d07c826f-7d4f-422b-a92a-f01f4bc79eb6","","1500","250","stim","","<div class = centerbox><div class = stroop-stim style = ""color:red"">GREEN</div></div>","66,71,82","1500","test","true","82","500","incongruent","red","green","","",""
"-1","-1","poldrack-single-stim","147","312425","0.0-147.0","d07c826f-7d4f-422b-a92a-f01f4bc79eb6","","500","500","fixation","","<div class = centerbox><div class = fixation>+</div></div>","none","500","test","","","","","","","","",""
"592","71","poldrack-categorize","148","314938","0.0-148.0","d07c826f-7d4f-422b-a92a-f01f4bc79eb6","","1500","250","stim","","<div class = centerbox><div class = stroop-stim style = ""color:green"">GREEN</div></div>","66,71,82","1500","test","true","71","500","congruent","green","green","","",""
"-1","-1","poldrack-single-stim","149","315699","0.0-149.0","d07c826f-7d4f-422b-a92a-f01f4bc79eb6","","500","500","fixation","","<div class = centerbox><div class = fixation>+</div></div>","none","500","test","","","","","","","","",""
"662","82","poldrack-categorize","150","318212","0.0-150.0","d07c826f-7d4f-422b-a92a-f01f4bc79eb6","","1500","250","stim","","<div class = centerbox><div class = stroop-stim style = ""color:red"">RED</div></div>","66,71,82","1500","test","true","82","500","congruent","red","red","","",""
"-1","-1","poldrack-single-stim","151","318973","0.0-151.0","d07c826f-7d4f-422b-a92a-f01f4bc79eb6","","500","500","fixation","","<div class = centerbox><div class = fixation>+</div></div>","none","500","test","","","","","","","","",""
"1268","82","poldrack-categorize","152","321486","0.0-152.0","d07c826f-7d4f-422b-a92a-f01f4bc79eb6","","1500","250","stim","","<div class = centerbox><div class = stroop-stim style = ""color:red"">BLUE</div></div>","66,71,82","1500","test","true","82","500","incongruent","red","blue","","",""
"-1","-1","poldrack-single-stim","153","322246","0.0-153.0","d07c826f-7d4f-422b-a92a-f01f4bc79eb6","","500","500","fixation","","<div class = centerbox><div class = fixation>+</div></div>","none","500","test","","","","","","","","",""
"634","82","poldrack-categorize","154","324760","0.0-154.0","d07c826f-7d4f-422b-a92a-f01f4bc79eb6","","1500","250","stim","","<div class = centerbox><div class = stroop-stim style = ""color:red"">RED</div></div>","66,71,82","1500","test","true","82","500","congruent","red","red","","",""
"-1","-1","poldrack-single-stim","155","325520","0.0-155.0","d07c826f-7d4f-422b-a92a-f01f4bc79eb6","","500","500","fixation","","<div class = centerbox><div class = fixation>+</div></div>","none","500","test","","","","","","","","",""
"528","66","poldrack-categorize","156","328033","0.0-156.0","d07c826f-7d4f-422b-a92a-f01f4bc79eb6","","1500","250","stim","","<div class = centerbox><div class = stroop-stim style = ""color:blue"">BLUE</div></div>","66,71,82","1500","test","true","66","500","congruent","blue","blue","","",""
"-1","-1","poldrack-single-stim","157","328794","0.0-157.0","d07c826f-7d4f-422b-a92a-f01f4bc79eb6","","500","500","fixation","","<div class = centerbox><div class = fixation>+</div></div>","none","500","test","","","","","","","","",""
"845","71","poldrack-categorize","158","331307","0.0-158.0","d07c826f-7d4f-422b-a92a-f01f4bc79eb6","","1500","250","stim","","<div class = centerbox><div class = stroop-stim style = ""color:green"">GREEN</div></div>","66,71,82","1500","test","true","71","500","congruent","green","green","","",""
"-1","-1","poldrack-single-stim","159","332068","0.0-159.0","d07c826f-7d4f-422b-a92a-f01f4bc79eb6","","500","500","fixation","","<div class = centerbox><div class = fixation>+</div></div>","none","500","test","","","","","","","","",""
"620","71","poldrack-categorize","160","334581","0.0-160.0","d07c826f-7d4f-422b-a92a-f01f4bc79eb6","","1500","250","stim","","<div class = centerbox><div class = stroop-stim style = ""color:green"">GREEN</div></div>","66,71,82","1500","test","true","71","500","congruent","green","green","","",""
"-1","-1","poldrack-single-stim","161","335341","0.0-161.0","d07c826f-7d4f-422b-a92a-f01f4bc79eb6","","500","500","fixation","","<div class = centerbox><div class = fixation>+</div></div>","none","500","test","","","","","","","","",""
"1474","66","poldrack-categorize","162","337856","0.0-162.0","d07c826f-7d4f-422b-a92a-f01f4bc79eb6","","1500","250","stim","","<div class = centerbox><div class = stroop-stim style = ""color:blue"">RED</div></div>","66,71,82","1500","test","true","66","500","incongruent","blue","red","","",""
"-1","-1","poldrack-single-stim","163","338614","0.0-163.0","d07c826f-7d4f-422b-a92a-f01f4bc79eb6","","500","500","fixation","","<div class = centerbox><div class = fixation>+</div></div>","none","500","test","","","","","","","","",""
"589","71","poldrack-categorize","164","341123","0.0-164.0","d07c826f-7d4f-422b-a92a-f01f4bc79eb6","","1500","250","stim","","<div class = centerbox><div class = stroop-stim style = ""color:green"">BLUE</div></div>","66,71,82","1500","test","true","71","500","incongruent","green","blue","","",""
"-1","-1","poldrack-single-stim","165","341883","0.0-165.0","d07c826f-7d4f-422b-a92a-f01f4bc79eb6","","500","500","fixation","","<div class = centerbox><div class = fixation>+</div></div>","none","500","test","","","","","","","","",""
"1188","66","poldrack-categorize","166","344396","0.0-166.0","d07c826f-7d4f-422b-a92a-f01f4bc79eb6","","1500","250","stim","","<div class = centerbox><div class = stroop-stim style = ""color:blue"">BLUE</div></div>","66,71,82","1500","test","true","66","500","congruent","blue","blue","","",""
"-1","-1","poldrack-single-stim","167","345157","0.0-167.0","d07c826f-7d4f-422b-a92a-f01f4bc79eb6","","500","500","fixation","","<div class = centerbox><div class = fixation>+</div></div>","none","500","test","","","","","","","","",""
"969","71","poldrack-categorize","168","347670","0.0-168.0","d07c826f-7d4f-422b-a92a-f01f4bc79eb6","","1500","250","stim","","<div class = centerbox><div class = stroop-stim style = ""color:green"">GREEN</div></div>","66,71,82","1500","test","true","71","500","congruent","green","green","","",""
"-1","-1","poldrack-single-stim","169","348431","0.0-169.0","d07c826f-7d4f-422b-a92a-f01f4bc79eb6","","500","500","fixation","","<div class = centerbox><div class = fixation>+</div></div>","none","500","test","","","","","","","","",""
"815","82","poldrack-categorize","170","350944","0.0-170.0","d07c826f-7d4f-422b-a92a-f01f4bc79eb6","","1500","250","stim","","<div class = centerbox><div class = stroop-stim style = ""color:red"">RED</div></div>","66,71,82","1500","test","true","82","500","congruent","red","red","","",""
"-1","-1","poldrack-single-stim","171","351699","0.0-171.0","d07c826f-7d4f-422b-a92a-f01f4bc79eb6","","500","500","fixation","","<div class = centerbox><div class = fixation>+</div></div>","none","500","test","","","","","","","","",""
"819","82","poldrack-categorize","172","354212","0.0-172.0","d07c826f-7d4f-422b-a92a-f01f4bc79eb6","","1500","250","stim","","<div class = centerbox><div class = stroop-stim style = ""color:red"">BLUE</div></div>","66,71,82","1500","test","true","82","500","incongruent","red","blue","","",""
"-1","-1","poldrack-single-stim","173","354973","0.0-173.0","d07c826f-7d4f-422b-a92a-f01f4bc79eb6","","500","500","fixation","","<div class = centerbox><div class = fixation>+</div></div>","none","500","test","","","","","","","","",""
"1362","66","poldrack-categorize","174","357486","0.0-174.0","d07c826f-7d4f-422b-a92a-f01f4bc79eb6","","1500","250","stim","","<div class = centerbox><div class = stroop-stim style = ""color:blue"">RED</div></div>","66,71,82","1500","test","true","66","500","incongruent","blue","red","","",""
"-1","-1","poldrack-single-stim","175","358246","0.0-175.0","d07c826f-7d4f-422b-a92a-f01f4bc79eb6","","500","500","fixation","","<div class = centerbox><div class = fixation>+</div></div>","none","500","test","","","","","","","","",""
"607","82","poldrack-categorize","176","360760","0.0-176.0","d07c826f-7d4f-422b-a92a-f01f4bc79eb6","","1500","250","stim","","<div class = centerbox><div class = stroop-stim style = ""color:red"">RED</div></div>","66,71,82","1500","test","true","82","500","congruent","red","red","","",""
"-1","-1","poldrack-single-stim","177","361520","0.0-177.0","d07c826f-7d4f-422b-a92a-f01f4bc79eb6","","500","500","fixation","","<div class = centerbox><div class = fixation>+</div></div>","none","500","test","","","","","","","","",""
"741","71","poldrack-categorize","178","364033","0.0-178.0","d07c826f-7d4f-422b-a92a-f01f4bc79eb6","","1500","250","stim","","<div class = centerbox><div class = stroop-stim style = ""color:green"">BLUE</div></div>","66,71,82","1500","test","true","71","500","incongruent","green","blue","","",""
"-1","-1","poldrack-single-stim","179","364794","0.0-179.0","d07c826f-7d4f-422b-a92a-f01f4bc79eb6","","500","500","fixation","","<div class = centerbox><div class = fixation>+</div></div>","none","500","test","","","","","","","","",""
"915","71","poldrack-categorize","180","367305","0.0-180.0","d07c826f-7d4f-422b-a92a-f01f4bc79eb6","","1500","250","stim","","<div class = centerbox><div class = stroop-stim style = ""color:green"">RED</div></div>","66,71,82","1500","test","true","71","500","incongruent","green","red","","",""
"-1","-1","poldrack-single-stim","181","368062","0.0-181.0","d07c826f-7d4f-422b-a92a-f01f4bc79eb6","","500","500","fixation","","<div class = centerbox><div class = fixation>+</div></div>","none","500","test","","","","","","","","",""
"903","66","poldrack-categorize","182","370575","0.0-182.0","d07c826f-7d4f-422b-a92a-f01f4bc79eb6","","1500","250","stim","","<div class = centerbox><div class = stroop-stim style = ""color:blue"">GREEN</div></div>","66,71,82","1500","test","true","66","500","incongruent","blue","green","","",""
"-1","-1","poldrack-single-stim","183","371336","0.0-183.0","d07c826f-7d4f-422b-a92a-f01f4bc79eb6","","500","500","fixation","","<div class = centerbox><div class = fixation>+</div></div>","none","500","test","","","","","","","","",""
"517","71","poldrack-categorize","184","373849","0.0-184.0","d07c826f-7d4f-422b-a92a-f01f4bc79eb6","","1500","250","stim","","<div class = centerbox><div class = stroop-stim style = ""color:green"">GREEN</div></div>","66,71,82","1500","test","true","71","500","congruent","green","green","","",""
"-1","-1","poldrack-single-stim","185","374609","0.0-185.0","d07c826f-7d4f-422b-a92a-f01f4bc79eb6","","500","500","fixation","","<div class = centerbox><div class = fixation>+</div></div>","none","500","test","","","","","","","","",""
"1292","66","poldrack-categorize","186","377123","0.0-186.0","d07c826f-7d4f-422b-a92a-f01f4bc79eb6","","1500","250","stim","","<div class = centerbox><div class = stroop-stim style = ""color:blue"">RED</div></div>","66,71,82","1500","test","true","66","500","incongruent","blue","red","","",""
"-1","-1","poldrack-single-stim","187","377884","0.0-187.0","d07c826f-7d4f-422b-a92a-f01f4bc79eb6","","500","500","fixation","","<div class = centerbox><div class = fixation>+</div></div>","none","500","test","","","","","","","","",""
"1113","66","poldrack-categorize","188","380396","0.0-188.0","d07c826f-7d4f-422b-a92a-f01f4bc79eb6","","1500","250","stim","","<div class = centerbox><div class = stroop-stim style = ""color:blue"">BLUE</div></div>","66,71,82","1500","test","true","66","500","congruent","blue","blue","","",""
"-1","-1","poldrack-single-stim","189","381157","0.0-189.0","d07c826f-7d4f-422b-a92a-f01f4bc79eb6","","500","500","fixation","","<div class = centerbox><div class = fixation>+</div></div>","none","500","test","","","","","","","","",""
"928","66","poldrack-categorize","190","383670","0.0-190.0","d07c826f-7d4f-422b-a92a-f01f4bc79eb6","","1500","250","stim","","<div class = centerbox><div class = stroop-stim style = ""color:blue"">GREEN</div></div>","66,71,82","1500","test","true","66","500","incongruent","blue","green","","",""
"-1","-1","poldrack-single-stim","191","384425","0.0-191.0","d07c826f-7d4f-422b-a92a-f01f4bc79eb6","","500","500","fixation","","<div class = centerbox><div class = fixation>+</div></div>","none","500","test","","","","","","","","",""
"1286","82","poldrack-categorize","192","386932","0.0-192.0","d07c826f-7d4f-422b-a92a-f01f4bc79eb6","","1500","250","stim","","<div class = centerbox><div class = stroop-stim style = ""color:red"">BLUE</div></div>","66,71,82","1500","test","true","82","500","incongruent","red","blue","","",""
"-1","-1","poldrack-single-stim","193","387693","0.0-193.0","d07c826f-7d4f-422b-a92a-f01f4bc79eb6","","500","500","fixation","","<div class = centerbox><div class = fixation>+</div></div>","none","500","test","","","","","","","","",""
"478","82","poldrack-categorize","194","390206","0.0-194.0","d07c826f-7d4f-422b-a92a-f01f4bc79eb6","","1500","250","stim","","<div class = centerbox><div class = stroop-stim style = ""color:red"">RED</div></div>","66,71,82","1500","test","true","82","500","congruent","red","red","","",""
"-1","-1","poldrack-single-stim","195","390967","0.0-195.0","d07c826f-7d4f-422b-a92a-f01f4bc79eb6","","500","500","fixation","","<div class = centerbox><div class = fixation>+</div></div>","none","500","test","","","","","","","","",""
"1045","71","poldrack-categorize","196","393480","0.0-196.0","d07c826f-7d4f-422b-a92a-f01f4bc79eb6","","1500","250","stim","","<div class = centerbox><div class = stroop-stim style = ""color:green"">BLUE</div></div>","66,71,82","1500","test","true","71","500","incongruent","green","blue","","",""
"-1","-1","poldrack-single-stim","197","394241","0.0-197.0","d07c826f-7d4f-422b-a92a-f01f4bc79eb6","","500","500","fixation","","<div class = centerbox><div class = fixation>+</div></div>","none","500","test","","","","","","","","",""
"595","71","poldrack-categorize","198","396754","0.0-198.0","d07c826f-7d4f-422b-a92a-f01f4bc79eb6","","1500","250","stim","","<div class = centerbox><div class = stroop-stim style = ""color:green"">GREEN</div></div>","66,71,82","1500","test","true","71","500","congruent","green","green","","",""
"-1","-1","poldrack-single-stim","199","397513","0.0-199.0","d07c826f-7d4f-422b-a92a-f01f4bc79eb6","","500","500","fixation","","<div class = centerbox><div class = fixation>+</div></div>","none","500","test","","","","","","","","",""
"656","71","poldrack-categorize","200","400028","0.0-200.0","d07c826f-7d4f-422b-a92a-f01f4bc79eb6","","1500","250","stim","","<div class = centerbox><div class = stroop-stim style = ""color:green"">GREEN</div></div>","66,71,82","1500","test","true","71","500","congruent","green","green","","",""
"-1","-1","poldrack-single-stim","201","400788","0.0-201.0","d07c826f-7d4f-422b-a92a-f01f4bc79eb6","","500","500","fixation","","<div class = centerbox><div class = fixation>+</div></div>","none","500","test","","","","","","","","",""
"670","66","poldrack-categorize","202","403301","0.0-202.0","d07c826f-7d4f-422b-a92a-f01f4bc79eb6","","1500","250","stim","","<div class = centerbox><div class = stroop-stim style = ""color:blue"">BLUE</div></div>","66,71,82","1500","test","true","66","500","congruent","blue","blue","","",""
"-1","-1","poldrack-single-stim","203","404062","0.0-203.0","d07c826f-7d4f-422b-a92a-f01f4bc79eb6","","500","500","fixation","","<div class = centerbox><div class = fixation>+</div></div>","none","500","test","","","","","","","","",""
"1052","71","poldrack-categorize","204","406575","0.0-204.0","d07c826f-7d4f-422b-a92a-f01f4bc79eb6","","1500","250","stim","","<div class = centerbox><div class = stroop-stim style = ""color:green"">RED</div></div>","66,71,82","1500","test","true","71","500","incongruent","green","red","","",""
"-1","-1","poldrack-single-stim","205","407336","0.0-205.0","d07c826f-7d4f-422b-a92a-f01f4bc79eb6","","500","500","fixation","","<div class = centerbox><div class = fixation>+</div></div>","none","500","test","","","","","","","","",""
"532","82","poldrack-categorize","206","409849","0.0-206.0","d07c826f-7d4f-422b-a92a-f01f4bc79eb6","","1500","250","stim","","<div class = centerbox><div class = stroop-stim style = ""color:red"">RED</div></div>","66,71,82","1500","test","true","82","500","congruent","red","red","","",""
"-1","-1","poldrack-single-stim","207","410609","0.0-207.0","d07c826f-7d4f-422b-a92a-f01f4bc79eb6","","500","500","fixation","","<div class = centerbox><div class = fixation>+</div></div>","none","500","test","","","","","","","","",""
"633","71","poldrack-categorize","208","413123","0.0-208.0","d07c826f-7d4f-422b-a92a-f01f4bc79eb6","","1500","250","stim","","<div class = centerbox><div class = stroop-stim style = ""color:green"">GREEN</div></div>","66,71,82","1500","test","true","71","500","congruent","green","green","","",""
"-1","-1","poldrack-single-stim","209","413883","0.0-209.0","d07c826f-7d4f-422b-a92a-f01f4bc79eb6","","500","500","fixation","","<div class = centerbox><div class = fixation>+</div></div>","none","500","test","","","","","","","","",""
"711","82","poldrack-categorize","210","416391","0.0-210.0","d07c826f-7d4f-422b-a92a-f01f4bc79eb6","","1500","250","stim","","<div class = centerbox><div class = stroop-stim style = ""color:red"">RED</div></div>","66,71,82","1500","test","true","82","500","congruent","red","red","","",""
"-1","-1","poldrack-single-stim","211","417151","0.0-211.0","d07c826f-7d4f-422b-a92a-f01f4bc79eb6","","500","500","fixation","","<div class = centerbox><div class = fixation>+</div></div>","none","500","test","","","","","","","","",""
"698","66","poldrack-categorize","212","419662","0.0-212.0","d07c826f-7d4f-422b-a92a-f01f4bc79eb6","","1500","250","stim","","<div class = centerbox><div class = stroop-stim style = ""color:blue"">BLUE</div></div>","66,71,82","1500","test","true","66","500","congruent","blue","blue","","",""
"-1","-1","poldrack-single-stim","213","420419","0.0-213.0","d07c826f-7d4f-422b-a92a-f01f4bc79eb6","","500","500","fixation","","<div class = centerbox><div class = fixation>+</div></div>","none","500","test","","","","","","","","",""
"1222","71","poldrack-categorize","214","422931","0.0-214.0","d07c826f-7d4f-422b-a92a-f01f4bc79eb6","","1500","250","stim","","<div class = centerbox><div class = stroop-stim style = ""color:green"">BLUE</div></div>","66,71,82","1500","test","true","71","500","incongruent","green","blue","","",""
"-1","-1","poldrack-single-stim","215","423686","0.0-215.0","d07c826f-7d4f-422b-a92a-f01f4bc79eb6","","500","500","fixation","","<div class = centerbox><div class = fixation>+</div></div>","none","500","test","","","","","","","","",""
"1122","82","poldrack-categorize","216","426200","0.0-216.0","d07c826f-7d4f-422b-a92a-f01f4bc79eb6","","1500","250","stim","","<div class = centerbox><div class = stroop-stim style = ""color:red"">GREEN</div></div>","66,71,82","1500","test","true","82","500","incongruent","red","green","","",""
"-1","-1","poldrack-single-stim","217","426961","0.0-217.0","d07c826f-7d4f-422b-a92a-f01f4bc79eb6","","500","500","fixation","","<div class = centerbox><div class = fixation>+</div></div>","none","500","test","","","","","","","","",""
"455","82","poldrack-categorize","218","429474","0.0-218.0","d07c826f-7d4f-422b-a92a-f01f4bc79eb6","","1500","250","stim","","<div class = centerbox><div class = stroop-stim style = ""color:red"">GREEN</div></div>","66,71,82","1500","test","true","82","500","incongruent","red","green","","",""
"-1","-1","poldrack-single-stim","219","430235","0.0-219.0","d07c826f-7d4f-422b-a92a-f01f4bc79eb6","","500","500","fixation","","<div class = centerbox><div class = fixation>+</div></div>","none","500","test","","","","","","","","",""
"557","66","poldrack-categorize","220","432747","0.0-220.0","d07c826f-7d4f-422b-a92a-f01f4bc79eb6","","1500","250","stim","","<div class = centerbox><div class = stroop-stim style = ""color:blue"">BLUE</div></div>","66,71,82","1500","test","true","66","500","congruent","blue","blue","","",""
"-1","-1","poldrack-single-stim","221","433509","0.0-221.0","d07c826f-7d4f-422b-a92a-f01f4bc79eb6","","500","500","fixation","","<div class = centerbox><div class = fixation>+</div></div>","none","500","test","","","","","","","","",""
"556","66","poldrack-categorize","222","436022","0.0-222.0","d07c826f-7d4f-422b-a92a-f01f4bc79eb6","","1500","250","stim","","<div class = centerbox><div class = stroop-stim style = ""color:blue"">BLUE</div></div>","66,71,82","1500","test","true","66","500","congruent","blue","blue","","",""
"-1","-1","poldrack-single-stim","223","436782","0.0-223.0","d07c826f-7d4f-422b-a92a-f01f4bc79eb6","","500","500","fixation","","<div class = centerbox><div class = fixation>+</div></div>","none","500","test","","","","","","","","",""
"633","71","poldrack-categorize","224","439295","0.0-224.0","d07c826f-7d4f-422b-a92a-f01f4bc79eb6","","1500","250","stim","","<div class = centerbox><div class = stroop-stim style = ""color:green"">GREEN</div></div>","66,71,82","1500","test","true","71","500","congruent","green","green","","",""
"-1","-1","poldrack-single-stim","225","440050","0.0-225.0","d07c826f-7d4f-422b-a92a-f01f4bc79eb6","","500","500","fixation","","<div class = centerbox><div class = fixation>+</div></div>","none","500","test","","","","","","","","",""
"936","82","poldrack-categorize","226","442562","0.0-226.0","d07c826f-7d4f-422b-a92a-f01f4bc79eb6","","1500","250","stim","","<div class = centerbox><div class = stroop-stim style = ""color:red"">GREEN</div></div>","66,71,82","1500","test","true","82","500","incongruent","red","green","","",""
"-1","-1","poldrack-single-stim","227","443318","0.0-227.0","d07c826f-7d4f-422b-a92a-f01f4bc79eb6","","500","500","fixation","","<div class = centerbox><div class = fixation>+</div></div>","none","500","test","","","","","","","","",""
"1025","71","poldrack-categorize","228","445831","0.0-228.0","d07c826f-7d4f-422b-a92a-f01f4bc79eb6","","1500","250","stim","","<div class = centerbox><div class = stroop-stim style = ""color:green"">RED</div></div>","66,71,82","1500","test","true","71","500","incongruent","green","red","","",""
"-1","-1","poldrack-single-stim","229","446592","0.0-229.0","d07c826f-7d4f-422b-a92a-f01f4bc79eb6","","500","500","fixation","","<div class = centerbox><div class = fixation>+</div></div>","none","500","test","","","","","","","","",""
"648","66","poldrack-categorize","230","449105","0.0-230.0","d07c826f-7d4f-422b-a92a-f01f4bc79eb6","","1500","250","stim","","<div class = centerbox><div class = stroop-stim style = ""color:blue"">BLUE</div></div>","66,71,82","1500","test","true","66","500","congruent","blue","blue","","",""
"-1","-1","poldrack-single-stim","231","449866","0.0-231.0","d07c826f-7d4f-422b-a92a-f01f4bc79eb6","","500","500","fixation","","<div class = centerbox><div class = fixation>+</div></div>","none","500","test","","","","","","","","",""
"1085","71","poldrack-categorize","232","452379","0.0-232.0","d07c826f-7d4f-422b-a92a-f01f4bc79eb6","","1500","250","stim","","<div class = centerbox><div class = stroop-stim style = ""color:green"">GREEN</div></div>","66,71,82","1500","test","true","71","500","congruent","green","green","","",""
"-1","-1","poldrack-single-stim","233","453140","0.0-233.0","d07c826f-7d4f-422b-a92a-f01f4bc79eb6","","500","500","fixation","","<div class = centerbox><div class = fixation>+</div></div>","none","500","test","","","","","","","","",""
"-1","-1","poldrack-categorize","234","455653","0.0-234.0","d07c826f-7d4f-422b-a92a-f01f4bc79eb6","","1500","250","stim","","<div class = centerbox><div class = stroop-stim style = ""color:blue"">RED</div></div>","66,71,82","1500","test","false","66","500","incongruent","blue","red","","",""
"-1","-1","poldrack-single-stim","235","456413","0.0-235.0","d07c826f-7d4f-422b-a92a-f01f4bc79eb6","","500","500","fixation","","<div class = centerbox><div class = fixation>+</div></div>","none","500","test","","","","","","","","",""
"834","82","poldrack-categorize","236","458927","0.0-236.0","d07c826f-7d4f-422b-a92a-f01f4bc79eb6","","1500","250","stim","","<div class = centerbox><div class = stroop-stim style = ""color:red"">GREEN</div></div>","66,71,82","1500","test","true","82","500","incongruent","red","green","","",""
"-1","-1","poldrack-single-stim","237","459687","0.0-237.0","d07c826f-7d4f-422b-a92a-f01f4bc79eb6","","500","500","fixation","","<div class = centerbox><div class = fixation>+</div></div>","none","500","test","","","","","","","","",""
"784","66","poldrack-categorize","238","462201","0.0-238.0","d07c826f-7d4f-422b-a92a-f01f4bc79eb6","","1500","250","stim","","<div class = centerbox><div class = stroop-stim style = ""color:green"">BLUE</div></div>","66,71,82","1500","test","false","71","500","incongruent","green","blue","","",""
"-1","-1","poldrack-single-stim","239","462961","0.0-239.0","d07c826f-7d4f-422b-a92a-f01f4bc79eb6","","500","500","fixation","","<div class = centerbox><div class = fixation>+</div></div>","none","500","test","","","","","","","","",""
"829","82","poldrack-categorize","240","465474","0.0-240.0","d07c826f-7d4f-422b-a92a-f01f4bc79eb6","","1500","250","stim","","<div class = centerbox><div class = stroop-stim style = ""color:red"">GREEN</div></div>","66,71,82","1500","test","true","82","500","incongruent","red","green","","",""
"-1","-1","poldrack-single-stim","241","466235","0.0-241.0","d07c826f-7d4f-422b-a92a-f01f4bc79eb6","","500","500","fixation","","<div class = centerbox><div class = fixation>+</div></div>","none","500","test","","","","","","","","",""
"652","66","poldrack-categorize","242","468745","0.0-242.0","d07c826f-7d4f-422b-a92a-f01f4bc79eb6","","1500","250","stim","","<div class = centerbox><div class = stroop-stim style = ""color:blue"">GREEN</div></div>","66,71,82","1500","test","true","66","500","incongruent","blue","green","","",""
"-1","-1","poldrack-single-stim","243","469503","0.0-243.0","d07c826f-7d4f-422b-a92a-f01f4bc79eb6","","500","500","fixation","","<div class = centerbox><div class = fixation>+</div></div>","none","500","test","","","","","","","","",""
"911","71","poldrack-categorize","244","472016","0.0-244.0","d07c826f-7d4f-422b-a92a-f01f4bc79eb6","","1500","250","stim","","<div class = centerbox><div class = stroop-stim style = ""color:green"">GREEN</div></div>","66,71,82","1500","test","true","71","500","congruent","green","green","","",""
"104089","","survey-text","245","576365","0.0-246.0","d07c826f-7d4f-422b-a92a-f01f4bc79eb6","","","","post task questions","","","","","","","","","","","","{""Q0"":""A word would pop up on the screen, I would tap either R, B, G depending on the ink color of the word that would pop up. 'R' for red, 'G' for green and 'B' for blue."",""Q1"":""N/A""}","",""
"3262","13","poldrack-text","246","580632","0.0-247.0","d07c826f-7d4f-422b-a92a-f01f4bc79eb6","<div class = centerbox><p class = center-block-text>Thanks for completing this task!</p><p class = center-block-text>Press <strong>enter</strong> to continue.</p></div>","3262","0","end","","","","","","","","","","","","","stroop","true"
"499970","13","text","247","1080637","0.0-248.0","d07c826f-7d4f-422b-a92a-f01f4bc79eb6","","","","","","","","","","","","","","","","","",""
