"rt","key_press","trial_type","trial_index","time_elapsed","internal_node_id","subject","text","block_duration","timing_post_trial","trial_id","view_history","stimulus","possible_responses","stim_duration","exp_stage","correct","correct_response","feedback_duration","condition","stim_color","stim_word","responses","exp_id","credit_var"
"876","13","text","0","877","0.0-0.0","4fda8a6e-56f1-479a-bde9-64f4ac2fc9a7","","","","","","","","","","","","","","","","","",""
"12991","13","poldrack-text","1","14876","0.0-1.0-0.0","4fda8a6e-56f1-479a-bde9-64f4ac2fc9a7","<div class = centerbox><p class = center-block-text>Welcome to the experiment. This experiment will take about 8 minutes. Press <strong>enter</strong> to begin.</p></div>","12991","0","instruction","","","","","","","","","","","","","",""
"33285","","poldrack-instructions","2","48161","0.0-1.0-1.0","4fda8a6e-56f1-479a-bde9-64f4ac2fc9a7","","","","instruction","[{""page_index"":0,""viewing_time"":33284}]","","","","","","","","","","","","",""
"4494","13","poldrack-text","3","53657","0.0-2.0","4fda8a6e-56f1-479a-bde9-64f4ac2fc9a7","<div class = centerbox><p class = block-text>We will start with a few practice trials. Remember, press the key corresponding to the <strong>ink</strong> color of the word: ""r"" for words colored red, ""b"" for words colored blue, and ""g"" for words colored green.</p><p class = block-text>Press <strong>enter</strong> to begin practice.</p></div>","4494","1000","practice_intro","","","","","","","","","","","","","",""
"-1","-1","poldrack-single-stim","4","55165","0.0-3.0","4fda8a6e-56f1-479a-bde9-64f4ac2fc9a7","","500","500","fixation","","<div class = centerbox><div class = fixation>+</div></div>","none","500","practice","","","","","","","","",""
"829","71","poldrack-categorize","5","57675","0.0-4.0","4fda8a6e-56f1-479a-bde9-64f4ac2fc9a7","","1500","250","stim","","<div class = centerbox><div class = stroop-stim style = ""color:green"">BLUE</div></div>","66,71,82","1500","practice","true","71","500","incongruent","green","blue","","",""
"-1","-1","poldrack-single-stim","6","58432","0.0-5.0","4fda8a6e-56f1-479a-bde9-64f4ac2fc9a7","","500","500","fixation","","<div class = centerbox><div class = fixation>+</div></div>","none","500","practice","","","","","","","","",""
"528","82","poldrack-categorize","7","60945","0.0-6.0","4fda8a6e-56f1-479a-bde9-64f4ac2fc9a7","","1500","250","stim","","<div class = centerbox><div class = stroop-stim style = ""color:red"">RED</div></div>","66,71,82","1500","practice","true","82","500","congruent","red","red","","",""
"-1","-1","poldrack-single-stim","8","61704","0.0-7.0","4fda8a6e-56f1-479a-bde9-64f4ac2fc9a7","","500","500","fixation","","<div class = centerbox><div class = fixation>+</div></div>","none","500","practice","","","","","","","","",""
"537","66","poldrack-categorize","9","64214","0.0-8.0","4fda8a6e-56f1-479a-bde9-64f4ac2fc9a7","","1500","250","stim","","<div class = centerbox><div class = stroop-stim style = ""color:blue"">RED</div></div>","66,71,82","1500","practice","true","66","500","incongruent","blue","red","","",""
"-1","-1","poldrack-single-stim","10","64974","0.0-9.0","4fda8a6e-56f1-479a-bde9-64f4ac2fc9a7","","500","500","fixation","","<div class = centerbox><div class = fixation>+</div></div>","none","500","practice","","","","","","","","",""
"641","82","poldrack-categorize","11","67487","0.0-10.0","4fda8a6e-56f1-479a-bde9-64f4ac2fc9a7","","1500","250","stim","","<div class = centerbox><div class = stroop-stim style = ""color:red"">GREEN</div></div>","66,71,82","1500","practice","true","82","500","incongruent","red","green","","",""
"-1","-1","poldrack-single-stim","12","68248","0.0-11.0","4fda8a6e-56f1-479a-bde9-64f4ac2fc9a7","","500","500","fixation","","<div class = centerbox><div class = fixation>+</div></div>","none","500","practice","","","","","","","","",""
"703","66","poldrack-categorize","13","70761","0.0-12.0","4fda8a6e-56f1-479a-bde9-64f4ac2fc9a7","","1500","250","stim","","<div class = centerbox><div class = stroop-stim style = ""color:blue"">BLUE</div></div>","66,71,82","1500","practice","true","66","500","congruent","blue","blue","","",""
"-1","-1","poldrack-single-stim","14","71522","0.0-13.0","4fda8a6e-56f1-479a-bde9-64f4ac2fc9a7","","500","500","fixation","","<div class = centerbox><div class = fixation>+</div></div>","none","500","practice","","","","","","","","",""
"646","82","poldrack-categorize","15","74035","0.0-14.0","4fda8a6e-56f1-479a-bde9-64f4ac2fc9a7","","1500","250","stim","","<div class = centerbox><div class = stroop-stim style = ""color:red"">RED</div></div>","66,71,82","1500","practice","true","82","500","congruent","red","red","","",""
"-1","-1","poldrack-single-stim","16","74795","0.0-15.0","4fda8a6e-56f1-479a-bde9-64f4ac2fc9a7","","500","500","fixation","","<div class = centerbox><div class = fixation>+</div></div>","none","500","practice","","","","","","","","",""
"884","66","poldrack-categorize","17","77309","0.0-16.0","4fda8a6e-56f1-479a-bde9-64f4ac2fc9a7","","1500","250","stim","","<div class = centerbox><div class = stroop-stim style = ""color:blue"">GREEN</div></div>","66,71,82","1500","practice","true","66","500","incongruent","blue","green","","",""
"-1","-1","poldrack-single-stim","18","78069","0.0-17.0","4fda8a6e-56f1-479a-bde9-64f4ac2fc9a7","","500","500","fixation","","<div class = centerbox><div class = fixation>+</div></div>","none","500","practice","","","","","","","","",""
"897","82","poldrack-categorize","19","80579","0.0-18.0","4fda8a6e-56f1-479a-bde9-64f4ac2fc9a7","","1500","250","stim","","<div class = centerbox><div class = stroop-stim style = ""color:red"">BLUE</div></div>","66,71,82","1500","practice","true","82","500","incongruent","red","blue","","",""
"-1","-1","poldrack-single-stim","20","81337","0.0-19.0","4fda8a6e-56f1-479a-bde9-64f4ac2fc9a7","","500","500","fixation","","<div class = centerbox><div class = fixation>+</div></div>","none","500","practice","","","","","","","","",""
"941","71","poldrack-categorize","21","83850","0.0-20.0","4fda8a6e-56f1-479a-bde9-64f4ac2fc9a7","","1500","250","stim","","<div class = centerbox><div class = stroop-stim style = ""color:green"">RED</div></div>","66,71,82","1500","practice","true","71","500","incongruent","green","red","","",""
"-1","-1","poldrack-single-stim","22","84611","0.0-21.0","4fda8a6e-56f1-479a-bde9-64f4ac2fc9a7","","500","500","fixation","","<div class = centerbox><div class = fixation>+</div></div>","none","500","practice","","","","","","","","",""
"852","82","poldrack-categorize","23","87124","0.0-22.0","4fda8a6e-56f1-479a-bde9-64f4ac2fc9a7","","1500","250","stim","","<div class = centerbox><div class = stroop-stim style = ""color:red"">BLUE</div></div>","66,71,82","1500","practice","true","82","500","incongruent","red","blue","","",""
"-1","-1","poldrack-single-stim","24","87885","0.0-23.0","4fda8a6e-56f1-479a-bde9-64f4ac2fc9a7","","500","500","fixation","","<div class = centerbox><div class = fixation>+</div></div>","none","500","practice","","","","","","","","",""
"716","82","poldrack-categorize","25","90392","0.0-24.0","4fda8a6e-56f1-479a-bde9-64f4ac2fc9a7","","1500","250","stim","","<div class = centerbox><div class = stroop-stim style = ""color:red"">GREEN</div></div>","66,71,82","1500","practice","true","82","500","incongruent","red","green","","",""
"-1","-1","poldrack-single-stim","26","91153","0.0-25.0","4fda8a6e-56f1-479a-bde9-64f4ac2fc9a7","","500","500","fixation","","<div class = centerbox><div class = fixation>+</div></div>","none","500","practice","","","","","","","","",""
"596","82","poldrack-categorize","27","93666","0.0-26.0","4fda8a6e-56f1-479a-bde9-64f4ac2fc9a7","","1500","250","stim","","<div class = centerbox><div class = stroop-stim style = ""color:red"">RED</div></div>","66,71,82","1500","practice","true","82","500","congruent","red","red","","",""
"-1","-1","poldrack-single-stim","28","94421","0.0-27.0","4fda8a6e-56f1-479a-bde9-64f4ac2fc9a7","","500","500","fixation","","<div class = centerbox><div class = fixation>+</div></div>","none","500","practice","","","","","","","","",""
"736","66","poldrack-categorize","29","96934","0.0-28.0","4fda8a6e-56f1-479a-bde9-64f4ac2fc9a7","","1500","250","stim","","<div class = centerbox><div class = stroop-stim style = ""color:blue"">BLUE</div></div>","66,71,82","1500","practice","true","66","500","congruent","blue","blue","","",""
"-1","-1","poldrack-single-stim","30","97695","0.0-29.0","4fda8a6e-56f1-479a-bde9-64f4ac2fc9a7","","500","500","fixation","","<div class = centerbox><div class = fixation>+</div></div>","none","500","practice","","","","","","","","",""
"967","66","poldrack-categorize","31","100206","0.0-30.0","4fda8a6e-56f1-479a-bde9-64f4ac2fc9a7","","1500","250","stim","","<div class = centerbox><div class = stroop-stim style = ""color:blue"">BLUE</div></div>","66,71,82","1500","practice","true","66","500","congruent","blue","blue","","",""
"-1","-1","poldrack-single-stim","32","100963","0.0-31.0","4fda8a6e-56f1-479a-bde9-64f4ac2fc9a7","","500","500","fixation","","<div class = centerbox><div class = fixation>+</div></div>","none","500","practice","","","","","","","","",""
"730","82","poldrack-categorize","33","103476","0.0-32.0","4fda8a6e-56f1-479a-bde9-64f4ac2fc9a7","","1500","250","stim","","<div class = centerbox><div class = stroop-stim style = ""color:red"">RED</div></div>","66,71,82","1500","practice","true","82","500","congruent","red","red","","",""
"-1","-1","poldrack-single-stim","34","104236","0.0-33.0","4fda8a6e-56f1-479a-bde9-64f4ac2fc9a7","","500","500","fixation","","<div class = centerbox><div class = fixation>+</div></div>","none","500","practice","","","","","","","","",""
"840","71","poldrack-categorize","35","106750","0.0-34.0","4fda8a6e-56f1-479a-bde9-64f4ac2fc9a7","","1500","250","stim","","<div class = centerbox><div class = stroop-stim style = ""color:green"">BLUE</div></div>","66,71,82","1500","practice","true","71","500","incongruent","green","blue","","",""
"-1","-1","poldrack-single-stim","36","107507","0.0-35.0","4fda8a6e-56f1-479a-bde9-64f4ac2fc9a7","","500","500","fixation","","<div class = centerbox><div class = fixation>+</div></div>","none","500","practice","","","","","","","","",""
"548","66","poldrack-categorize","37","110018","0.0-36.0","4fda8a6e-56f1-479a-bde9-64f4ac2fc9a7","","1500","250","stim","","<div class = centerbox><div class = stroop-stim style = ""color:blue"">RED</div></div>","66,71,82","1500","practice","true","66","500","incongruent","blue","red","","",""
"-1","-1","poldrack-single-stim","38","110778","0.0-37.0","4fda8a6e-56f1-479a-bde9-64f4ac2fc9a7","","500","500","fixation","","<div class = centerbox><div class = fixation>+</div></div>","none","500","practice","","","","","","","","",""
"730","71","poldrack-categorize","39","113291","0.0-38.0","4fda8a6e-56f1-479a-bde9-64f4ac2fc9a7","","1500","250","stim","","<div class = centerbox><div class = stroop-stim style = ""color:green"">GREEN</div></div>","66,71,82","1500","practice","true","71","500","congruent","green","green","","",""
"-1","-1","poldrack-single-stim","40","114052","0.0-39.0","4fda8a6e-56f1-479a-bde9-64f4ac2fc9a7","","500","500","fixation","","<div class = centerbox><div class = fixation>+</div></div>","none","500","practice","","","","","","","","",""
"760","71","poldrack-categorize","41","116565","0.0-40.0","4fda8a6e-56f1-479a-bde9-64f4ac2fc9a7","","1500","250","stim","","<div class = centerbox><div class = stroop-stim style = ""color:green"">RED</div></div>","66,71,82","1500","practice","true","71","500","incongruent","green","red","","",""
"-1","-1","poldrack-single-stim","42","117326","0.0-41.0","4fda8a6e-56f1-479a-bde9-64f4ac2fc9a7","","500","500","fixation","","<div class = centerbox><div class = fixation>+</div></div>","none","500","practice","","","","","","","","",""
"862","66","poldrack-categorize","43","119839","0.0-42.0","4fda8a6e-56f1-479a-bde9-64f4ac2fc9a7","","1500","250","stim","","<div class = centerbox><div class = stroop-stim style = ""color:blue"">GREEN</div></div>","66,71,82","1500","practice","true","66","500","incongruent","blue","green","","",""
"-1","-1","poldrack-single-stim","44","120594","0.0-43.0","4fda8a6e-56f1-479a-bde9-64f4ac2fc9a7","","500","500","fixation","","<div class = centerbox><div class = fixation>+</div></div>","none","500","practice","","","","","","","","",""
"713","66","poldrack-categorize","45","123107","0.0-44.0","4fda8a6e-56f1-479a-bde9-64f4ac2fc9a7","","1500","250","stim","","<div class = centerbox><div class = stroop-stim style = ""color:blue"">BLUE</div></div>","66,71,82","1500","practice","true","66","500","congruent","blue","blue","","",""
"-1","-1","poldrack-single-stim","46","123868","0.0-45.0","4fda8a6e-56f1-479a-bde9-64f4ac2fc9a7","","500","500","fixation","","<div class = centerbox><div class = fixation>+</div></div>","none","500","practice","","","","","","","","",""
"711","71","poldrack-categorize","47","126381","0.0-46.0","4fda8a6e-56f1-479a-bde9-64f4ac2fc9a7","","1500","250","stim","","<div class = centerbox><div class = stroop-stim style = ""color:green"">GREEN</div></div>","66,71,82","1500","practice","true","71","500","congruent","green","green","","",""
"-1","-1","poldrack-single-stim","48","127141","0.0-47.0","4fda8a6e-56f1-479a-bde9-64f4ac2fc9a7","","500","500","fixation","","<div class = centerbox><div class = fixation>+</div></div>","none","500","practice","","","","","","","","",""
"590","71","poldrack-categorize","49","129655","0.0-48.0","4fda8a6e-56f1-479a-bde9-64f4ac2fc9a7","","1500","250","stim","","<div class = centerbox><div class = stroop-stim style = ""color:green"">GREEN</div></div>","66,71,82","1500","practice","true","71","500","congruent","green","green","","",""
"-1","-1","poldrack-single-stim","50","130414","0.0-49.0","4fda8a6e-56f1-479a-bde9-64f4ac2fc9a7","","500","500","fixation","","<div class = centerbox><div class = fixation>+</div></div>","none","500","practice","","","","","","","","",""
"639","71","poldrack-categorize","51","132923","0.0-50.0","4fda8a6e-56f1-479a-bde9-64f4ac2fc9a7","","1500","250","stim","","<div class = centerbox><div class = stroop-stim style = ""color:green"">GREEN</div></div>","66,71,82","1500","practice","true","71","500","congruent","green","green","","",""
"4289","13","poldrack-text","52","137468","0.0-52.0","4fda8a6e-56f1-479a-bde9-64f4ac2fc9a7","<div class = centerbox><p class = center-block-text>We will now start the test. Respond exactly like you did during practice.</p><p class = center-block-text>Press <strong>enter</strong> to begin the test.</p></div>","4289","1000","test_intro","","","","","","","","","","","","","",""
"-1","-1","poldrack-single-stim","53","138977","0.0-53.0","4fda8a6e-56f1-479a-bde9-64f4ac2fc9a7","","500","500","fixation","","<div class = centerbox><div class = fixation>+</div></div>","none","500","test","","","","","","","","",""
"637","82","poldrack-categorize","54","141484","0.0-54.0","4fda8a6e-56f1-479a-bde9-64f4ac2fc9a7","","1500","250","stim","","<div class = centerbox><div class = stroop-stim style = ""color:red"">RED</div></div>","66,71,82","1500","test","true","82","500","congruent","red","red","","",""
"-1","-1","poldrack-single-stim","55","142245","0.0-55.0","4fda8a6e-56f1-479a-bde9-64f4ac2fc9a7","","500","500","fixation","","<div class = centerbox><div class = fixation>+</div></div>","none","500","test","","","","","","","","",""
"583","82","poldrack-categorize","56","144753","0.0-56.0","4fda8a6e-56f1-479a-bde9-64f4ac2fc9a7","","1500","250","stim","","<div class = centerbox><div class = stroop-stim style = ""color:red"">RED</div></div>","66,71,82","1500","test","true","82","500","congruent","red","red","","",""
"-1","-1","poldrack-single-stim","57","145511","0.0-57.0","4fda8a6e-56f1-479a-bde9-64f4ac2fc9a7","","500","500","fixation","","<div class = centerbox><div class = fixation>+</div></div>","none","500","test","","","","","","","","",""
"714","82","poldrack-categorize","58","148021","0.0-58.0","4fda8a6e-56f1-479a-bde9-64f4ac2fc9a7","","1500","250","stim","","<div class = centerbox><div class = stroop-stim style = ""color:red"">GREEN</div></div>","66,71,82","1500","test","true","82","500","incongruent","red","green","","",""
"-1","-1","poldrack-single-stim","59","148781","0.0-59.0","4fda8a6e-56f1-479a-bde9-64f4ac2fc9a7","","500","500","fixation","","<div class = centerbox><div class = fixation>+</div></div>","none","500","test","","","","","","","","",""
"764","71","poldrack-categorize","60","151291","0.0-60.0","4fda8a6e-56f1-479a-bde9-64f4ac2fc9a7","","1500","250","stim","","<div class = centerbox><div class = stroop-stim style = ""color:green"">GREEN</div></div>","66,71,82","1500","test","true","71","500","congruent","green","green","","",""
"-1","-1","poldrack-single-stim","61","152049","0.0-61.0","4fda8a6e-56f1-479a-bde9-64f4ac2fc9a7","","500","500","fixation","","<div class = centerbox><div class = fixation>+</div></div>","none","500","test","","","","","","","","",""
"584","66","poldrack-categorize","62","154564","0.0-62.0","4fda8a6e-56f1-479a-bde9-64f4ac2fc9a7","","1500","250","stim","","<div class = centerbox><div class = stroop-stim style = ""color:blue"">RED</div></div>","66,71,82","1500","test","true","66","500","incongruent","blue","red","","",""
"-1","-1","poldrack-single-stim","63","155323","0.0-63.0","4fda8a6e-56f1-479a-bde9-64f4ac2fc9a7","","500","500","fixation","","<div class = centerbox><div class = fixation>+</div></div>","none","500","test","","","","","","","","",""
"782","71","poldrack-categorize","64","157836","0.0-64.0","4fda8a6e-56f1-479a-bde9-64f4ac2fc9a7","","1500","250","stim","","<div class = centerbox><div class = stroop-stim style = ""color:green"">BLUE</div></div>","66,71,82","1500","test","true","71","500","incongruent","green","blue","","",""
"-1","-1","poldrack-single-stim","65","158595","0.0-65.0","4fda8a6e-56f1-479a-bde9-64f4ac2fc9a7","","500","500","fixation","","<div class = centerbox><div class = fixation>+</div></div>","none","500","test","","","","","","","","",""
"858","66","poldrack-categorize","66","161104","0.0-66.0","4fda8a6e-56f1-479a-bde9-64f4ac2fc9a7","","1500","250","stim","","<div class = centerbox><div class = stroop-stim style = ""color:blue"">BLUE</div></div>","66,71,82","1500","test","true","66","500","congruent","blue","blue","","",""
"-1","-1","poldrack-single-stim","67","161865","0.0-67.0","4fda8a6e-56f1-479a-bde9-64f4ac2fc9a7","","500","500","fixation","","<div class = centerbox><div class = fixation>+</div></div>","none","500","test","","","","","","","","",""
"641","66","poldrack-categorize","68","164378","0.0-68.0","4fda8a6e-56f1-479a-bde9-64f4ac2fc9a7","","1500","250","stim","","<div class = centerbox><div class = stroop-stim style = ""color:blue"">BLUE</div></div>","66,71,82","1500","test","true","66","500","congruent","blue","blue","","",""
"-1","-1","poldrack-single-stim","69","165139","0.0-69.0","4fda8a6e-56f1-479a-bde9-64f4ac2fc9a7","","500","500","fixation","","<div class = centerbox><div class = fixation>+</div></div>","none","500","test","","","","","","","","",""
"824","66","poldrack-categorize","70","167652","0.0-70.0","4fda8a6e-56f1-479a-bde9-64f4ac2fc9a7","","1500","250","stim","","<div class = centerbox><div class = stroop-stim style = ""color:blue"">GREEN</div></div>","66,71,82","1500","test","true","66","500","incongruent","blue","green","","",""
"-1","-1","poldrack-single-stim","71","168405","0.0-71.0","4fda8a6e-56f1-479a-bde9-64f4ac2fc9a7","","500","500","fixation","","<div class = centerbox><div class = fixation>+</div></div>","none","500","test","","","","","","","","",""
"657","71","poldrack-categorize","72","170914","0.0-72.0","4fda8a6e-56f1-479a-bde9-64f4ac2fc9a7","","1500","250","stim","","<div class = centerbox><div class = stroop-stim style = ""color:green"">GREEN</div></div>","66,71,82","1500","test","true","71","500","congruent","green","green","","",""
"-1","-1","poldrack-single-stim","73","171674","0.0-73.0","4fda8a6e-56f1-479a-bde9-64f4ac2fc9a7","","500","500","fixation","","<div class = centerbox><div class = fixation>+</div></div>","none","500","test","","","","","","","","",""
"583","82","poldrack-categorize","74","174188","0.0-74.0","4fda8a6e-56f1-479a-bde9-64f4ac2fc9a7","","1500","250","stim","","<div class = centerbox><div class = stroop-stim style = ""color:red"">RED</div></div>","66,71,82","1500","test","true","82","500","congruent","red","red","","",""
"-1","-1","poldrack-single-stim","75","174948","0.0-75.0","4fda8a6e-56f1-479a-bde9-64f4ac2fc9a7","","500","500","fixation","","<div class = centerbox><div class = fixation>+</div></div>","none","500","test","","","","","","","","",""
"678","71","poldrack-categorize","76","177462","0.0-76.0","4fda8a6e-56f1-479a-bde9-64f4ac2fc9a7","","1500","250","stim","","<div class = centerbox><div class = stroop-stim style = ""color:green"">GREEN</div></div>","66,71,82","1500","test","true","71","500","congruent","green","green","","",""
"-1","-1","poldrack-single-stim","77","178222","0.0-77.0","4fda8a6e-56f1-479a-bde9-64f4ac2fc9a7","","500","500","fixation","","<div class = centerbox><div class = fixation>+</div></div>","none","500","test","","","","","","","","",""
"771","82","poldrack-categorize","78","180734","0.0-78.0","4fda8a6e-56f1-479a-bde9-64f4ac2fc9a7","","1500","250","stim","","<div class = centerbox><div class = stroop-stim style = ""color:red"">RED</div></div>","66,71,82","1500","test","true","82","500","congruent","red","red","","",""
"-1","-1","poldrack-single-stim","79","181490","0.0-79.0","4fda8a6e-56f1-479a-bde9-64f4ac2fc9a7","","500","500","fixation","","<div class = centerbox><div class = fixation>+</div></div>","none","500","test","","","","","","","","",""
"862","71","poldrack-categorize","80","184003","0.0-80.0","4fda8a6e-56f1-479a-bde9-64f4ac2fc9a7","","1500","250","stim","","<div class = centerbox><div class = stroop-stim style = ""color:green"">BLUE</div></div>","66,71,82","1500","test","true","71","500","incongruent","green","blue","","",""
"-1","-1","poldrack-single-stim","81","184764","0.0-81.0","4fda8a6e-56f1-479a-bde9-64f4ac2fc9a7","","500","500","fixation","","<div class = centerbox><div class = fixation>+</div></div>","none","500","test","","","","","","","","",""
"596","66","poldrack-categorize","82","187277","0.0-82.0","4fda8a6e-56f1-479a-bde9-64f4ac2fc9a7","","1500","250","stim","","<div class = centerbox><div class = stroop-stim style = ""color:blue"">GREEN</div></div>","66,71,82","1500","test","true","66","500","incongruent","blue","green","","",""
"-1","-1","poldrack-single-stim","83","188036","0.0-83.0","4fda8a6e-56f1-479a-bde9-64f4ac2fc9a7","","500","500","fixation","","<div class = centerbox><div class = fixation>+</div></div>","none","500","test","","","","","","","","",""
"595","82","poldrack-categorize","84","190551","0.0-84.0","4fda8a6e-56f1-479a-bde9-64f4ac2fc9a7","","1500","250","stim","","<div class = centerbox><div class = stroop-stim style = ""color:red"">RED</div></div>","66,71,82","1500","test","true","82","500","congruent","red","red","","",""
"-1","-1","poldrack-single-stim","85","191312","0.0-85.0","4fda8a6e-56f1-479a-bde9-64f4ac2fc9a7","","500","500","fixation","","<div class = centerbox><div class = fixation>+</div></div>","none","500","test","","","","","","","","",""
"616","82","poldrack-categorize","86","193825","0.0-86.0","4fda8a6e-56f1-479a-bde9-64f4ac2fc9a7","","1500","250","stim","","<div class = centerbox><div class = stroop-stim style = ""color:red"">GREEN</div></div>","66,71,82","1500","test","true","82","500","incongruent","red","green","","",""
"-1","-1","poldrack-single-stim","87","194585","0.0-87.0","4fda8a6e-56f1-479a-bde9-64f4ac2fc9a7","","500","500","fixation","","<div class = centerbox><div class = fixation>+</div></div>","none","500","test","","","","","","","","",""
"640","66","poldrack-categorize","88","197098","0.0-88.0","4fda8a6e-56f1-479a-bde9-64f4ac2fc9a7","","1500","250","stim","","<div class = centerbox><div class = stroop-stim style = ""color:blue"">BLUE</div></div>","66,71,82","1500","test","true","66","500","congruent","blue","blue","","",""
"-1","-1","poldrack-single-stim","89","197853","0.0-89.0","4fda8a6e-56f1-479a-bde9-64f4ac2fc9a7","","500","500","fixation","","<div class = centerbox><div class = fixation>+</div></div>","none","500","test","","","","","","","","",""
"825","66","poldrack-categorize","90","200367","0.0-90.0","4fda8a6e-56f1-479a-bde9-64f4ac2fc9a7","","1500","250","stim","","<div class = centerbox><div class = stroop-stim style = ""color:blue"">GREEN</div></div>","66,71,82","1500","test","true","66","500","incongruent","blue","green","","",""
"-1","-1","poldrack-single-stim","91","201121","0.0-91.0","4fda8a6e-56f1-479a-bde9-64f4ac2fc9a7","","500","500","fixation","","<div class = centerbox><div class = fixation>+</div></div>","none","500","test","","","","","","","","",""
"725","71","poldrack-categorize","92","203635","0.0-92.0","4fda8a6e-56f1-479a-bde9-64f4ac2fc9a7","","1500","250","stim","","<div class = centerbox><div class = stroop-stim style = ""color:green"">GREEN</div></div>","66,71,82","1500","test","true","71","500","congruent","green","green","","",""
"-1","-1","poldrack-single-stim","93","204395","0.0-93.0","4fda8a6e-56f1-479a-bde9-64f4ac2fc9a7","","500","500","fixation","","<div class = centerbox><div class = fixation>+</div></div>","none","500","test","","","","","","","","",""
"709","82","poldrack-categorize","94","206908","0.0-94.0","4fda8a6e-56f1-479a-bde9-64f4ac2fc9a7","","1500","250","stim","","<div class = centerbox><div class = stroop-stim style = ""color:red"">BLUE</div></div>","66,71,82","1500","test","true","82","500","incongruent","red","blue","","",""
"-1","-1","poldrack-single-stim","95","207668","0.0-95.0","4fda8a6e-56f1-479a-bde9-64f4ac2fc9a7","","500","500","fixation","","<div class = centerbox><div class = fixation>+</div></div>","none","500","test","","","","","","","","",""
"715","82","poldrack-categorize","96","210182","0.0-96.0","4fda8a6e-56f1-479a-bde9-64f4ac2fc9a7","","1500","250","stim","","<div class = centerbox><div class = stroop-stim style = ""color:red"">BLUE</div></div>","66,71,82","1500","test","true","82","500","incongruent","red","blue","","",""
"-1","-1","poldrack-single-stim","97","210943","0.0-97.0","4fda8a6e-56f1-479a-bde9-64f4ac2fc9a7","","500","500","fixation","","<div class = centerbox><div class = fixation>+</div></div>","none","500","test","","","","","","","","",""
"824","66","poldrack-categorize","98","213456","0.0-98.0","4fda8a6e-56f1-479a-bde9-64f4ac2fc9a7","","1500","250","stim","","<div class = centerbox><div class = stroop-stim style = ""color:blue"">BLUE</div></div>","66,71,82","1500","test","true","66","500","congruent","blue","blue","","",""
"-1","-1","poldrack-single-stim","99","214217","0.0-99.0","4fda8a6e-56f1-479a-bde9-64f4ac2fc9a7","","500","500","fixation","","<div class = centerbox><div class = fixation>+</div></div>","none","500","test","","","","","","","","",""
"663","71","poldrack-categorize","100","216730","0.0-100.0","4fda8a6e-56f1-479a-bde9-64f4ac2fc9a7","","1500","250","stim","","<div class = centerbox><div class = stroop-stim style = ""color:green"">GREEN</div></div>","66,71,82","1500","test","true","71","500","congruent","green","green","","",""
"-1","-1","poldrack-single-stim","101","217487","0.0-101.0","4fda8a6e-56f1-479a-bde9-64f4ac2fc9a7","","500","500","fixation","","<div class = centerbox><div class = fixation>+</div></div>","none","500","test","","","","","","","","",""
"761","66","poldrack-categorize","102","219998","0.0-102.0","4fda8a6e-56f1-479a-bde9-64f4ac2fc9a7","","1500","250","stim","","<div class = centerbox><div class = stroop-stim style = ""color:blue"">BLUE</div></div>","66,71,82","1500","test","true","66","500","congruent","blue","blue","","",""
"-1","-1","poldrack-single-stim","103","220758","0.0-103.0","4fda8a6e-56f1-479a-bde9-64f4ac2fc9a7","","500","500","fixation","","<div class = centerbox><div class = fixation>+</div></div>","none","500","test","","","","","","","","",""
"649","71","poldrack-categorize","104","223272","0.0-104.0","4fda8a6e-56f1-479a-bde9-64f4ac2fc9a7","","1500","250","stim","","<div class = centerbox><div class = stroop-stim style = ""color:green"">GREEN</div></div>","66,71,82","1500","test","true","71","500","congruent","green","green","","",""
"-1","-1","poldrack-single-stim","105","224032","0.0-105.0","4fda8a6e-56f1-479a-bde9-64f4ac2fc9a7","","500","500","fixation","","<div class = centerbox><div class = fixation>+</div></div>","none","500","test","","","","","","","","",""
"623","71","poldrack-categorize","106","226545","0.0-106.0","4fda8a6e-56f1-479a-bde9-64f4ac2fc9a7","","1500","250","stim","","<div class = centerbox><div class = stroop-stim style = ""color:green"">BLUE</div></div>","66,71,82","1500","test","true","71","500","incongruent","green","blue","","",""
"-1","-1","poldrack-single-stim","107","227306","0.0-107.0","4fda8a6e-56f1-479a-bde9-64f4ac2fc9a7","","500","500","fixation","","<div class = centerbox><div class = fixation>+</div></div>","none","500","test","","","","","","","","",""
"627","71","poldrack-categorize","108","229819","0.0-108.0","4fda8a6e-56f1-479a-bde9-64f4ac2fc9a7","","1500","250","stim","","<div class = centerbox><div class = stroop-stim style = ""color:green"">RED</div></div>","66,71,82","1500","test","true","71","500","incongruent","green","red","","",""
"-1","-1","poldrack-single-stim","109","230580","0.0-109.0","4fda8a6e-56f1-479a-bde9-64f4ac2fc9a7","","500","500","fixation","","<div class = centerbox><div class = fixation>+</div></div>","none","500","test","","","","","","","","",""
"754","66","poldrack-categorize","110","233093","0.0-110.0","4fda8a6e-56f1-479a-bde9-64f4ac2fc9a7","","1500","250","stim","","<div class = centerbox><div class = stroop-stim style = ""color:blue"">BLUE</div></div>","66,71,82","1500","test","true","66","500","congruent","blue","blue","","",""
"-1","-1","poldrack-single-stim","111","233854","0.0-111.0","4fda8a6e-56f1-479a-bde9-64f4ac2fc9a7","","500","500","fixation","","<div class = centerbox><div class = fixation>+</div></div>","none","500","test","","","","","","","","",""
"735","82","poldrack-categorize","112","236367","0.0-112.0","4fda8a6e-56f1-479a-bde9-64f4ac2fc9a7","","1500","250","stim","","<div class = centerbox><div class = stroop-stim style = ""color:red"">RED</div></div>","66,71,82","1500","test","true","82","500","congruent","red","red","","",""
"-1","-1","poldrack-single-stim","113","237127","0.0-113.0","4fda8a6e-56f1-479a-bde9-64f4ac2fc9a7","","500","500","fixation","","<div class = centerbox><div class = fixation>+</div></div>","none","500","test","","","","","","","","",""
"655","82","poldrack-categorize","114","239641","0.0-114.0","4fda8a6e-56f1-479a-bde9-64f4ac2fc9a7","","1500","250","stim","","<div class = centerbox><div class = stroop-stim style = ""color:red"">RED</div></div>","66,71,82","1500","test","true","82","500","congruent","red","red","","",""
"-1","-1","poldrack-single-stim","115","240401","0.0-115.0","4fda8a6e-56f1-479a-bde9-64f4ac2fc9a7","","500","500","fixation","","<div class = centerbox><div class = fixation>+</div></div>","none","500","test","","","","","","","","",""
"755","66","poldrack-categorize","116","242914","0.0-116.0","4fda8a6e-56f1-479a-bde9-64f4ac2fc9a7","","1500","250","stim","","<div class = centerbox><div class = stroop-stim style = ""color:blue"">RED</div></div>","66,71,82","1500","test","true","66","500","incongruent","blue","red","","",""
"-1","-1","poldrack-single-stim","117","243675","0.0-117.0","4fda8a6e-56f1-479a-bde9-64f4ac2fc9a7","","500","500","fixation","","<div class = centerbox><div class = fixation>+</div></div>","none","500","test","","","","","","","","",""
"649","66","poldrack-categorize","118","246188","0.0-118.0","4fda8a6e-56f1-479a-bde9-64f4ac2fc9a7","","1500","250","stim","","<div class = centerbox><div class = stroop-stim style = ""color:blue"">BLUE</div></div>","66,71,82","1500","test","true","66","500","congruent","blue","blue","","",""
"-1","-1","poldrack-single-stim","119","246951","0.0-119.0","4fda8a6e-56f1-479a-bde9-64f4ac2fc9a7","","500","500","fixation","","<div class = centerbox><div class = fixation>+</div></div>","none","500","test","","","","","","","","",""
"736","71","poldrack-categorize","120","249462","0.0-120.0","4fda8a6e-56f1-479a-bde9-64f4ac2fc9a7","","1500","250","stim","","<div class = centerbox><div class = stroop-stim style = ""color:green"">GREEN</div></div>","66,71,82","1500","test","true","71","500","congruent","green","green","","",""
"-1","-1","poldrack-single-stim","121","250223","0.0-121.0","4fda8a6e-56f1-479a-bde9-64f4ac2fc9a7","","500","500","fixation","","<div class = centerbox><div class = fixation>+</div></div>","none","500","test","","","","","","","","",""
"798","66","poldrack-categorize","122","252732","0.0-122.0","4fda8a6e-56f1-479a-bde9-64f4ac2fc9a7","","1500","250","stim","","<div class = centerbox><div class = stroop-stim style = ""color:blue"">GREEN</div></div>","66,71,82","1500","test","true","66","500","incongruent","blue","green","","",""
"-1","-1","poldrack-single-stim","123","253491","0.0-123.0","4fda8a6e-56f1-479a-bde9-64f4ac2fc9a7","","500","500","fixation","","<div class = centerbox><div class = fixation>+</div></div>","none","500","test","","","","","","","","",""
"809","66","poldrack-categorize","124","256004","0.0-124.0","4fda8a6e-56f1-479a-bde9-64f4ac2fc9a7","","1500","250","stim","","<div class = centerbox><div class = stroop-stim style = ""color:blue"">GREEN</div></div>","66,71,82","1500","test","true","66","500","incongruent","blue","green","","",""
"-1","-1","poldrack-single-stim","125","256764","0.0-125.0","4fda8a6e-56f1-479a-bde9-64f4ac2fc9a7","","500","500","fixation","","<div class = centerbox><div class = fixation>+</div></div>","none","500","test","","","","","","","","",""
"711","82","poldrack-categorize","126","259278","0.0-126.0","4fda8a6e-56f1-479a-bde9-64f4ac2fc9a7","","1500","250","stim","","<div class = centerbox><div class = stroop-stim style = ""color:red"">RED</div></div>","66,71,82","1500","test","true","82","500","congruent","red","red","","",""
"-1","-1","poldrack-single-stim","127","260038","0.0-127.0","4fda8a6e-56f1-479a-bde9-64f4ac2fc9a7","","500","500","fixation","","<div class = centerbox><div class = fixation>+</div></div>","none","500","test","","","","","","","","",""
"726","82","poldrack-categorize","128","262552","0.0-128.0","4fda8a6e-56f1-479a-bde9-64f4ac2fc9a7","","1500","250","stim","","<div class = centerbox><div class = stroop-stim style = ""color:red"">GREEN</div></div>","66,71,82","1500","test","true","82","500","incongruent","red","green","","",""
"-1","-1","poldrack-single-stim","129","263312","0.0-129.0","4fda8a6e-56f1-479a-bde9-64f4ac2fc9a7","","500","500","fixation","","<div class = centerbox><div class = fixation>+</div></div>","none","500","test","","","","","","","","",""
"980","71","poldrack-categorize","130","265825","0.0-130.0","4fda8a6e-56f1-479a-bde9-64f4ac2fc9a7","","1500","250","stim","","<div class = centerbox><div class = stroop-stim style = ""color:green"">BLUE</div></div>","66,71,82","1500","test","true","71","500","incongruent","green","blue","","",""
"-1","-1","poldrack-single-stim","131","266586","0.0-131.0","4fda8a6e-56f1-479a-bde9-64f4ac2fc9a7","","500","500","fixation","","<div class = centerbox><div class = fixation>+</div></div>","none","500","test","","","","","","","","",""
"738","66","poldrack-categorize","132","269099","0.0-132.0","4fda8a6e-56f1-479a-bde9-64f4ac2fc9a7","","1500","250","stim","","<div class = centerbox><div class = stroop-stim style = ""color:blue"">BLUE</div></div>","66,71,82","1500","test","true","66","500","congruent","blue","blue","","",""
"-1","-1","poldrack-single-stim","133","269860","0.0-133.0","4fda8a6e-56f1-479a-bde9-64f4ac2fc9a7","","500","500","fixation","","<div class = centerbox><div class = fixation>+</div></div>","none","500","test","","","","","","","","",""
"704","82","poldrack-categorize","134","272373","0.0-134.0","4fda8a6e-56f1-479a-bde9-64f4ac2fc9a7","","1500","250","stim","","<div class = centerbox><div class = stroop-stim style = ""color:red"">RED</div></div>","66,71,82","1500","test","true","82","500","congruent","red","red","","",""
"-1","-1","poldrack-single-stim","135","273133","0.0-135.0","4fda8a6e-56f1-479a-bde9-64f4ac2fc9a7","","500","500","fixation","","<div class = centerbox><div class = fixation>+</div></div>","none","500","test","","","","","","","","",""
"679","66","poldrack-categorize","136","275647","0.0-136.0","4fda8a6e-56f1-479a-bde9-64f4ac2fc9a7","","1500","250","stim","","<div class = centerbox><div class = stroop-stim style = ""color:blue"">BLUE</div></div>","66,71,82","1500","test","true","66","500","congruent","blue","blue","","",""
"-1","-1","poldrack-single-stim","137","276407","0.0-137.0","4fda8a6e-56f1-479a-bde9-64f4ac2fc9a7","","500","500","fixation","","<div class = centerbox><div class = fixation>+</div></div>","none","500","test","","","","","","","","",""
"708","82","poldrack-categorize","138","278921","0.0-138.0","4fda8a6e-56f1-479a-bde9-64f4ac2fc9a7","","1500","250","stim","","<div class = centerbox><div class = stroop-stim style = ""color:red"">BLUE</div></div>","66,71,82","1500","test","true","82","500","incongruent","red","blue","","",""
"-1","-1","poldrack-single-stim","139","279681","0.0-139.0","4fda8a6e-56f1-479a-bde9-64f4ac2fc9a7","","500","500","fixation","","<div class = centerbox><div class = fixation>+</div></div>","none","500","test","","","","","","","","",""
"682","71","poldrack-categorize","140","282194","0.0-140.0","4fda8a6e-56f1-479a-bde9-64f4ac2fc9a7","","1500","250","stim","","<div class = centerbox><div class = stroop-stim style = ""color:green"">RED</div></div>","66,71,82","1500","test","true","71","500","incongruent","green","red","","",""
"-1","-1","poldrack-single-stim","141","282955","0.0-141.0","4fda8a6e-56f1-479a-bde9-64f4ac2fc9a7","","500","500","fixation","","<div class = centerbox><div class = fixation>+</div></div>","none","500","test","","","","","","","","",""
"704","82","poldrack-categorize","142","285468","0.0-142.0","4fda8a6e-56f1-479a-bde9-64f4ac2fc9a7","","1500","250","stim","","<div class = centerbox><div class = stroop-stim style = ""color:red"">RED</div></div>","66,71,82","1500","test","true","82","500","congruent","red","red","","",""
"-1","-1","poldrack-single-stim","143","286229","0.0-143.0","4fda8a6e-56f1-479a-bde9-64f4ac2fc9a7","","500","500","fixation","","<div class = centerbox><div class = fixation>+</div></div>","none","500","test","","","","","","","","",""
"910","71","poldrack-categorize","144","288742","0.0-144.0","4fda8a6e-56f1-479a-bde9-64f4ac2fc9a7","","1500","250","stim","","<div class = centerbox><div class = stroop-stim style = ""color:green"">RED</div></div>","66,71,82","1500","test","true","71","500","incongruent","green","red","","",""
"-1","-1","poldrack-single-stim","145","289503","0.0-145.0","4fda8a6e-56f1-479a-bde9-64f4ac2fc9a7","","500","500","fixation","","<div class = centerbox><div class = fixation>+</div></div>","none","500","test","","","","","","","","",""
"780","82","poldrack-categorize","146","292010","0.0-146.0","4fda8a6e-56f1-479a-bde9-64f4ac2fc9a7","","1500","250","stim","","<div class = centerbox><div class = stroop-stim style = ""color:red"">BLUE</div></div>","66,71,82","1500","test","true","82","500","incongruent","red","blue","","",""
"-1","-1","poldrack-single-stim","147","292771","0.0-147.0","4fda8a6e-56f1-479a-bde9-64f4ac2fc9a7","","500","500","fixation","","<div class = centerbox><div class = fixation>+</div></div>","none","500","test","","","","","","","","",""
"830","71","poldrack-categorize","148","295284","0.0-148.0","4fda8a6e-56f1-479a-bde9-64f4ac2fc9a7","","1500","250","stim","","<div class = centerbox><div class = stroop-stim style = ""color:green"">BLUE</div></div>","66,71,82","1500","test","true","71","500","incongruent","green","blue","","",""
"-1","-1","poldrack-single-stim","149","296041","0.0-149.0","4fda8a6e-56f1-479a-bde9-64f4ac2fc9a7","","500","500","fixation","","<div class = centerbox><div class = fixation>+</div></div>","none","500","test","","","","","","","","",""
"754","71","poldrack-categorize","150","298545","0.0-150.0","4fda8a6e-56f1-479a-bde9-64f4ac2fc9a7","","1500","250","stim","","<div class = centerbox><div class = stroop-stim style = ""color:green"">GREEN</div></div>","66,71,82","1500","test","true","71","500","congruent","green","green","","",""
"-1","-1","poldrack-single-stim","151","299302","0.0-151.0","4fda8a6e-56f1-479a-bde9-64f4ac2fc9a7","","500","500","fixation","","<div class = centerbox><div class = fixation>+</div></div>","none","500","test","","","","","","","","",""
"761","71","poldrack-categorize","152","301815","0.0-152.0","4fda8a6e-56f1-479a-bde9-64f4ac2fc9a7","","1500","250","stim","","<div class = centerbox><div class = stroop-stim style = ""color:green"">RED</div></div>","66,71,82","1500","test","true","71","500","incongruent","green","red","","",""
"-1","-1","poldrack-single-stim","153","302575","0.0-153.0","4fda8a6e-56f1-479a-bde9-64f4ac2fc9a7","","500","500","fixation","","<div class = centerbox><div class = fixation>+</div></div>","none","500","test","","","","","","","","",""
"705","71","poldrack-categorize","154","305088","0.0-154.0","4fda8a6e-56f1-479a-bde9-64f4ac2fc9a7","","1500","250","stim","","<div class = centerbox><div class = stroop-stim style = ""color:green"">GREEN</div></div>","66,71,82","1500","test","true","71","500","congruent","green","green","","",""
"-1","-1","poldrack-single-stim","155","305848","0.0-155.0","4fda8a6e-56f1-479a-bde9-64f4ac2fc9a7","","500","500","fixation","","<div class = centerbox><div class = fixation>+</div></div>","none","500","test","","","","","","","","",""
"657","71","poldrack-categorize","156","308361","0.0-156.0","4fda8a6e-56f1-479a-bde9-64f4ac2fc9a7","","1500","250","stim","","<div class = centerbox><div class = stroop-stim style = ""color:green"">GREEN</div></div>","66,71,82","1500","test","true","71","500","congruent","green","green","","",""
"-1","-1","poldrack-single-stim","157","309122","0.0-157.0","4fda8a6e-56f1-479a-bde9-64f4ac2fc9a7","","500","500","fixation","","<div class = centerbox><div class = fixation>+</div></div>","none","500","test","","","","","","","","",""
"797","66","poldrack-categorize","158","311635","0.0-158.0","4fda8a6e-56f1-479a-bde9-64f4ac2fc9a7","","1500","250","stim","","<div class = centerbox><div class = stroop-stim style = ""color:blue"">BLUE</div></div>","66,71,82","1500","test","true","66","500","congruent","blue","blue","","",""
"-1","-1","poldrack-single-stim","159","312396","0.0-159.0","4fda8a6e-56f1-479a-bde9-64f4ac2fc9a7","","500","500","fixation","","<div class = centerbox><div class = fixation>+</div></div>","none","500","test","","","","","","","","",""
"725","71","poldrack-categorize","160","314907","0.0-160.0","4fda8a6e-56f1-479a-bde9-64f4ac2fc9a7","","1500","250","stim","","<div class = centerbox><div class = stroop-stim style = ""color:green"">GREEN</div></div>","66,71,82","1500","test","true","71","500","congruent","green","green","","",""
"-1","-1","poldrack-single-stim","161","315664","0.0-161.0","4fda8a6e-56f1-479a-bde9-64f4ac2fc9a7","","500","500","fixation","","<div class = centerbox><div class = fixation>+</div></div>","none","500","test","","","","","","","","",""
"918","66","poldrack-categorize","162","318177","0.0-162.0","4fda8a6e-56f1-479a-bde9-64f4ac2fc9a7","","1500","250","stim","","<div class = centerbox><div class = stroop-stim style = ""color:blue"">RED</div></div>","66,71,82","1500","test","true","66","500","incongruent","blue","red","","",""
"-1","-1","poldrack-single-stim","163","318938","0.0-163.0","4fda8a6e-56f1-479a-bde9-64f4ac2fc9a7","","500","500","fixation","","<div class = centerbox><div class = fixation>+</div></div>","none","500","test","","","","","","","","",""
"796","82","poldrack-categorize","164","321451","0.0-164.0","4fda8a6e-56f1-479a-bde9-64f4ac2fc9a7","","1500","250","stim","","<div class = centerbox><div class = stroop-stim style = ""color:red"">RED</div></div>","66,71,82","1500","test","true","82","500","congruent","red","red","","",""
"-1","-1","poldrack-single-stim","165","322212","0.0-165.0","4fda8a6e-56f1-479a-bde9-64f4ac2fc9a7","","500","500","fixation","","<div class = centerbox><div class = fixation>+</div></div>","none","500","test","","","","","","","","",""
"740","71","poldrack-categorize","166","324725","0.0-166.0","4fda8a6e-56f1-479a-bde9-64f4ac2fc9a7","","1500","250","stim","","<div class = centerbox><div class = stroop-stim style = ""color:green"">RED</div></div>","66,71,82","1500","test","true","71","500","incongruent","green","red","","",""
"-1","-1","poldrack-single-stim","167","325485","0.0-167.0","4fda8a6e-56f1-479a-bde9-64f4ac2fc9a7","","500","500","fixation","","<div class = centerbox><div class = fixation>+</div></div>","none","500","test","","","","","","","","",""
"804","71","poldrack-categorize","168","327993","0.0-168.0","4fda8a6e-56f1-479a-bde9-64f4ac2fc9a7","","1500","250","stim","","<div class = centerbox><div class = stroop-stim style = ""color:green"">BLUE</div></div>","66,71,82","1500","test","true","71","500","incongruent","green","blue","","",""
"-1","-1","poldrack-single-stim","169","328753","0.0-169.0","4fda8a6e-56f1-479a-bde9-64f4ac2fc9a7","","500","500","fixation","","<div class = centerbox><div class = fixation>+</div></div>","none","500","test","","","","","","","","",""
"749","66","poldrack-categorize","170","331266","0.0-170.0","4fda8a6e-56f1-479a-bde9-64f4ac2fc9a7","","1500","250","stim","","<div class = centerbox><div class = stroop-stim style = ""color:blue"">BLUE</div></div>","66,71,82","1500","test","true","66","500","congruent","blue","blue","","",""
"-1","-1","poldrack-single-stim","171","332027","0.0-171.0","4fda8a6e-56f1-479a-bde9-64f4ac2fc9a7","","500","500","fixation","","<div class = centerbox><div class = fixation>+</div></div>","none","500","test","","","","","","","","",""
"708","82","poldrack-categorize","172","334540","0.0-172.0","4fda8a6e-56f1-479a-bde9-64f4ac2fc9a7","","1500","250","stim","","<div class = centerbox><div class = stroop-stim style = ""color:red"">BLUE</div></div>","66,71,82","1500","test","true","82","500","incongruent","red","blue","","",""
"-1","-1","poldrack-single-stim","173","335301","0.0-173.0","4fda8a6e-56f1-479a-bde9-64f4ac2fc9a7","","500","500","fixation","","<div class = centerbox><div class = fixation>+</div></div>","none","500","test","","","","","","","","",""
"674","71","poldrack-categorize","174","337814","0.0-174.0","4fda8a6e-56f1-479a-bde9-64f4ac2fc9a7","","1500","250","stim","","<div class = centerbox><div class = stroop-stim style = ""color:green"">GREEN</div></div>","66,71,82","1500","test","true","71","500","congruent","green","green","","",""
"-1","-1","poldrack-single-stim","175","338575","0.0-175.0","4fda8a6e-56f1-479a-bde9-64f4ac2fc9a7","","500","500","fixation","","<div class = centerbox><div class = fixation>+</div></div>","none","500","test","","","","","","","","",""
"737","66","poldrack-categorize","176","341088","0.0-176.0","4fda8a6e-56f1-479a-bde9-64f4ac2fc9a7","","1500","250","stim","","<div class = centerbox><div class = stroop-stim style = ""color:blue"">GREEN</div></div>","66,71,82","1500","test","true","66","500","incongruent","blue","green","","",""
"-1","-1","poldrack-single-stim","177","341849","0.0-177.0","4fda8a6e-56f1-479a-bde9-64f4ac2fc9a7","","500","500","fixation","","<div class = centerbox><div class = fixation>+</div></div>","none","500","test","","","","","","","","",""
"630","71","poldrack-categorize","178","344362","0.0-178.0","4fda8a6e-56f1-479a-bde9-64f4ac2fc9a7","","1500","250","stim","","<div class = centerbox><div class = stroop-stim style = ""color:green"">RED</div></div>","66,71,82","1500","test","true","71","500","incongruent","green","red","","",""
"-1","-1","poldrack-single-stim","179","345122","0.0-179.0","4fda8a6e-56f1-479a-bde9-64f4ac2fc9a7","","500","500","fixation","","<div class = centerbox><div class = fixation>+</div></div>","none","500","test","","","","","","","","",""
"701","66","poldrack-categorize","180","347636","0.0-180.0","4fda8a6e-56f1-479a-bde9-64f4ac2fc9a7","","1500","250","stim","","<div class = centerbox><div class = stroop-stim style = ""color:blue"">RED</div></div>","66,71,82","1500","test","true","66","500","incongruent","blue","red","","",""
"-1","-1","poldrack-single-stim","181","348396","0.0-181.0","4fda8a6e-56f1-479a-bde9-64f4ac2fc9a7","","500","500","fixation","","<div class = centerbox><div class = fixation>+</div></div>","none","500","test","","","","","","","","",""
"744","66","poldrack-categorize","182","350910","0.0-182.0","4fda8a6e-56f1-479a-bde9-64f4ac2fc9a7","","1500","250","stim","","<div class = centerbox><div class = stroop-stim style = ""color:blue"">BLUE</div></div>","66,71,82","1500","test","true","66","500","congruent","blue","blue","","",""
"-1","-1","poldrack-single-stim","183","351670","0.0-183.0","4fda8a6e-56f1-479a-bde9-64f4ac2fc9a7","","500","500","fixation","","<div class = centerbox><div class = fixation>+</div></div>","none","500","test","","","","","","","","",""
"696","82","poldrack-categorize","184","354183","0.0-184.0","4fda8a6e-56f1-479a-bde9-64f4ac2fc9a7","","1500","250","stim","","<div class = centerbox><div class = stroop-stim style = ""color:red"">GREEN</div></div>","66,71,82","1500","test","true","82","500","incongruent","red","green","","",""
"-1","-1","poldrack-single-stim","185","354944","0.0-185.0","4fda8a6e-56f1-479a-bde9-64f4ac2fc9a7","","500","500","fixation","","<div class = centerbox><div class = fixation>+</div></div>","none","500","test","","","","","","","","",""
"646","71","poldrack-categorize","186","357456","0.0-186.0","4fda8a6e-56f1-479a-bde9-64f4ac2fc9a7","","1500","250","stim","","<div class = centerbox><div class = stroop-stim style = ""color:green"">GREEN</div></div>","66,71,82","1500","test","true","71","500","congruent","green","green","","",""
"-1","-1","poldrack-single-stim","187","358212","0.0-187.0","4fda8a6e-56f1-479a-bde9-64f4ac2fc9a7","","500","500","fixation","","<div class = centerbox><div class = fixation>+</div></div>","none","500","test","","","","","","","","",""
"660","71","poldrack-categorize","188","360719","0.0-188.0","4fda8a6e-56f1-479a-bde9-64f4ac2fc9a7","","1500","250","stim","","<div class = centerbox><div class = stroop-stim style = ""color:green"">BLUE</div></div>","66,71,82","1500","test","true","71","500","incongruent","green","blue","","",""
"-1","-1","poldrack-single-stim","189","361480","0.0-189.0","4fda8a6e-56f1-479a-bde9-64f4ac2fc9a7","","500","500","fixation","","<div class = centerbox><div class = fixation>+</div></div>","none","500","test","","","","","","","","",""
"710","66","poldrack-categorize","190","363992","0.0-190.0","4fda8a6e-56f1-479a-bde9-64f4ac2fc9a7","","1500","250","stim","","<div class = centerbox><div class = stroop-stim style = ""color:blue"">BLUE</div></div>","66,71,82","1500","test","true","66","500","congruent","blue","blue","","",""
"-1","-1","poldrack-single-stim","191","364748","0.0-191.0","4fda8a6e-56f1-479a-bde9-64f4ac2fc9a7","","500","500","fixation","","<div class = centerbox><div class = fixation>+</div></div>","none","500","test","","","","","","","","",""
"680","82","poldrack-categorize","192","367260","0.0-192.0","4fda8a6e-56f1-479a-bde9-64f4ac2fc9a7","","1500","250","stim","","<div class = centerbox><div class = stroop-stim style = ""color:red"">GREEN</div></div>","66,71,82","1500","test","true","82","500","incongruent","red","green","","",""
"-1","-1","poldrack-single-stim","193","368016","0.0-193.0","4fda8a6e-56f1-479a-bde9-64f4ac2fc9a7","","500","500","fixation","","<div class = centerbox><div class = fixation>+</div></div>","none","500","test","","","","","","","","",""
"651","82","poldrack-categorize","194","370529","0.0-194.0","4fda8a6e-56f1-479a-bde9-64f4ac2fc9a7","","1500","250","stim","","<div class = centerbox><div class = stroop-stim style = ""color:red"">RED</div></div>","66,71,82","1500","test","true","82","500","congruent","red","red","","",""
"-1","-1","poldrack-single-stim","195","371290","0.0-195.0","4fda8a6e-56f1-479a-bde9-64f4ac2fc9a7","","500","500","fixation","","<div class = centerbox><div class = fixation>+</div></div>","none","500","test","","","","","","","","",""
"811","71","poldrack-categorize","196","373803","0.0-196.0","4fda8a6e-56f1-479a-bde9-64f4ac2fc9a7","","1500","250","stim","","<div class = centerbox><div class = stroop-stim style = ""color:green"">BLUE</div></div>","66,71,82","1500","test","true","71","500","incongruent","green","blue","","",""
"-1","-1","poldrack-single-stim","197","374564","0.0-197.0","4fda8a6e-56f1-479a-bde9-64f4ac2fc9a7","","500","500","fixation","","<div class = centerbox><div class = fixation>+</div></div>","none","500","test","","","","","","","","",""
"698","66","poldrack-categorize","198","377077","0.0-198.0","4fda8a6e-56f1-479a-bde9-64f4ac2fc9a7","","1500","250","stim","","<div class = centerbox><div class = stroop-stim style = ""color:blue"">RED</div></div>","66,71,82","1500","test","true","66","500","incongruent","blue","red","","",""
"-1","-1","poldrack-single-stim","199","377837","0.0-199.0","4fda8a6e-56f1-479a-bde9-64f4ac2fc9a7","","500","500","fixation","","<div class = centerbox><div class = fixation>+</div></div>","none","500","test","","","","","","","","",""
"760","82","poldrack-categorize","200","380350","0.0-200.0","4fda8a6e-56f1-479a-bde9-64f4ac2fc9a7","","1500","250","stim","","<div class = centerbox><div class = stroop-stim style = ""color:red"">GREEN</div></div>","66,71,82","1500","test","true","82","500","incongruent","red","green","","",""
"-1","-1","poldrack-single-stim","201","381111","0.0-201.0","4fda8a6e-56f1-479a-bde9-64f4ac2fc9a7","","500","500","fixation","","<div class = centerbox><div class = fixation>+</div></div>","none","500","test","","","","","","","","",""
"1021","66","poldrack-categorize","202","383619","0.0-202.0","4fda8a6e-56f1-479a-bde9-64f4ac2fc9a7","","1500","250","stim","","<div class = centerbox><div class = stroop-stim style = ""color:blue"">RED</div></div>","66,71,82","1500","test","true","66","500","incongruent","blue","red","","",""
"-1","-1","poldrack-single-stim","203","384379","0.0-203.0","4fda8a6e-56f1-479a-bde9-64f4ac2fc9a7","","500","500","fixation","","<div class = centerbox><div class = fixation>+</div></div>","none","500","test","","","","","","","","",""
"671","82","poldrack-categorize","204","386892","0.0-204.0","4fda8a6e-56f1-479a-bde9-64f4ac2fc9a7","","1500","250","stim","","<div class = centerbox><div class = stroop-stim style = ""color:red"">BLUE</div></div>","66,71,82","1500","test","true","82","500","incongruent","red","blue","","",""
"-1","-1","poldrack-single-stim","205","387653","0.0-205.0","4fda8a6e-56f1-479a-bde9-64f4ac2fc9a7","","500","500","fixation","","<div class = centerbox><div class = fixation>+</div></div>","none","500","test","","","","","","","","",""
"669","82","poldrack-categorize","206","390166","0.0-206.0","4fda8a6e-56f1-479a-bde9-64f4ac2fc9a7","","1500","250","stim","","<div class = centerbox><div class = stroop-stim style = ""color:red"">RED</div></div>","66,71,82","1500","test","true","82","500","congruent","red","red","","",""
"-1","-1","poldrack-single-stim","207","390925","0.0-207.0","4fda8a6e-56f1-479a-bde9-64f4ac2fc9a7","","500","500","fixation","","<div class = centerbox><div class = fixation>+</div></div>","none","500","test","","","","","","","","",""
"637","71","poldrack-categorize","208","393440","0.0-208.0","4fda8a6e-56f1-479a-bde9-64f4ac2fc9a7","","1500","250","stim","","<div class = centerbox><div class = stroop-stim style = ""color:green"">GREEN</div></div>","66,71,82","1500","test","true","71","500","congruent","green","green","","",""
"-1","-1","poldrack-single-stim","209","394195","0.0-209.0","4fda8a6e-56f1-479a-bde9-64f4ac2fc9a7","","500","500","fixation","","<div class = centerbox><div class = fixation>+</div></div>","none","500","test","","","","","","","","",""
"592","66","poldrack-categorize","210","396702","0.0-210.0","4fda8a6e-56f1-479a-bde9-64f4ac2fc9a7","","1500","250","stim","","<div class = centerbox><div class = stroop-stim style = ""color:blue"">BLUE</div></div>","66,71,82","1500","test","true","66","500","congruent","blue","blue","","",""
"-1","-1","poldrack-single-stim","211","397463","0.0-211.0","4fda8a6e-56f1-479a-bde9-64f4ac2fc9a7","","500","500","fixation","","<div class = centerbox><div class = fixation>+</div></div>","none","500","test","","","","","","","","",""
"795","82","poldrack-categorize","212","399976","0.0-212.0","4fda8a6e-56f1-479a-bde9-64f4ac2fc9a7","","1500","250","stim","","<div class = centerbox><div class = stroop-stim style = ""color:red"">RED</div></div>","66,71,82","1500","test","true","82","500","congruent","red","red","","",""
"-1","-1","poldrack-single-stim","213","400733","0.0-213.0","4fda8a6e-56f1-479a-bde9-64f4ac2fc9a7","","500","500","fixation","","<div class = centerbox><div class = fixation>+</div></div>","none","500","test","","","","","","","","",""
"887","66","poldrack-categorize","214","403244","0.0-214.0","4fda8a6e-56f1-479a-bde9-64f4ac2fc9a7","","1500","250","stim","","<div class = centerbox><div class = stroop-stim style = ""color:blue"">RED</div></div>","66,71,82","1500","test","true","66","500","incongruent","blue","red","","",""
"-1","-1","poldrack-single-stim","215","404005","0.0-215.0","4fda8a6e-56f1-479a-bde9-64f4ac2fc9a7","","500","500","fixation","","<div class = centerbox><div class = fixation>+</div></div>","none","500","test","","","","","","","","",""
"726","82","poldrack-categorize","216","406512","0.0-216.0","4fda8a6e-56f1-479a-bde9-64f4ac2fc9a7","","1500","250","stim","","<div class = centerbox><div class = stroop-stim style = ""color:red"">GREEN</div></div>","66,71,82","1500","test","true","82","500","incongruent","red","green","","",""
"-1","-1","poldrack-single-stim","217","407272","0.0-217.0","4fda8a6e-56f1-479a-bde9-64f4ac2fc9a7","","500","500","fixation","","<div class = centerbox><div class = fixation>+</div></div>","none","500","test","","","","","","","","",""
"641","71","poldrack-categorize","218","409786","0.0-218.0","4fda8a6e-56f1-479a-bde9-64f4ac2fc9a7","","1500","250","stim","","<div class = centerbox><div class = stroop-stim style = ""color:green"">RED</div></div>","66,71,82","1500","test","true","71","500","incongruent","green","red","","",""
"-1","-1","poldrack-single-stim","219","410545","0.0-219.0","4fda8a6e-56f1-479a-bde9-64f4ac2fc9a7","","500","500","fixation","","<div class = centerbox><div class = fixation>+</div></div>","none","500","test","","","","","","","","",""
"760","66","poldrack-categorize","220","413060","0.0-220.0","4fda8a6e-56f1-479a-bde9-64f4ac2fc9a7","","1500","250","stim","","<div class = centerbox><div class = stroop-stim style = ""color:blue"">GREEN</div></div>","66,71,82","1500","test","true","66","500","incongruent","blue","green","","",""
"-1","-1","poldrack-single-stim","221","413820","0.0-221.0","4fda8a6e-56f1-479a-bde9-64f4ac2fc9a7","","500","500","fixation","","<div class = centerbox><div class = fixation>+</div></div>","none","500","test","","","","","","","","",""
"855","66","poldrack-categorize","222","416328","0.0-222.0","4fda8a6e-56f1-479a-bde9-64f4ac2fc9a7","","1500","250","stim","","<div class = centerbox><div class = stroop-stim style = ""color:blue"">BLUE</div></div>","66,71,82","1500","test","true","66","500","congruent","blue","blue","","",""
"-1","-1","poldrack-single-stim","223","417082","0.0-223.0","4fda8a6e-56f1-479a-bde9-64f4ac2fc9a7","","500","500","fixation","","<div class = centerbox><div class = fixation>+</div></div>","none","500","test","","","","","","","","",""
"710","66","poldrack-categorize","224","419596","0.0-224.0","4fda8a6e-56f1-479a-bde9-64f4ac2fc9a7","","1500","250","stim","","<div class = centerbox><div class = stroop-stim style = ""color:blue"">RED</div></div>","66,71,82","1500","test","true","66","500","incongruent","blue","red","","",""
"-1","-1","poldrack-single-stim","225","420356","0.0-225.0","4fda8a6e-56f1-479a-bde9-64f4ac2fc9a7","","500","500","fixation","","<div class = centerbox><div class = fixation>+</div></div>","none","500","test","","","","","","","","",""
"734","82","poldrack-categorize","226","422866","0.0-226.0","4fda8a6e-56f1-479a-bde9-64f4ac2fc9a7","","1500","250","stim","","<div class = centerbox><div class = stroop-stim style = ""color:red"">RED</div></div>","66,71,82","1500","test","true","82","500","congruent","red","red","","",""
"-1","-1","poldrack-single-stim","227","423627","0.0-227.0","4fda8a6e-56f1-479a-bde9-64f4ac2fc9a7","","500","500","fixation","","<div class = centerbox><div class = fixation>+</div></div>","none","500","test","","","","","","","","",""
"800","66","poldrack-categorize","228","426137","0.0-228.0","4fda8a6e-56f1-479a-bde9-64f4ac2fc9a7","","1500","250","stim","","<div class = centerbox><div class = stroop-stim style = ""color:blue"">BLUE</div></div>","66,71,82","1500","test","true","66","500","congruent","blue","blue","","",""
"-1","-1","poldrack-single-stim","229","426898","0.0-229.0","4fda8a6e-56f1-479a-bde9-64f4ac2fc9a7","","500","500","fixation","","<div class = centerbox><div class = fixation>+</div></div>","none","500","test","","","","","","","","",""
"737","82","poldrack-categorize","230","429405","0.0-230.0","4fda8a6e-56f1-479a-bde9-64f4ac2fc9a7","","1500","250","stim","","<div class = centerbox><div class = stroop-stim style = ""color:red"">BLUE</div></div>","66,71,82","1500","test","true","82","500","incongruent","red","blue","","",""
"-1","-1","poldrack-single-stim","231","430166","0.0-231.0","4fda8a6e-56f1-479a-bde9-64f4ac2fc9a7","","500","500","fixation","","<div class = centerbox><div class = fixation>+</div></div>","none","500","test","","","","","","","","",""
"723","71","poldrack-categorize","232","432679","0.0-232.0","4fda8a6e-56f1-479a-bde9-64f4ac2fc9a7","","1500","250","stim","","<div class = centerbox><div class = stroop-stim style = ""color:green"">GREEN</div></div>","66,71,82","1500","test","true","71","500","congruent","green","green","","",""
"-1","-1","poldrack-single-stim","233","433440","0.0-233.0","4fda8a6e-56f1-479a-bde9-64f4ac2fc9a7","","500","500","fixation","","<div class = centerbox><div class = fixation>+</div></div>","none","500","test","","","","","","","","",""
"1017","71","poldrack-categorize","234","435952","0.0-234.0","4fda8a6e-56f1-479a-bde9-64f4ac2fc9a7","","1500","250","stim","","<div class = centerbox><div class = stroop-stim style = ""color:green"">RED</div></div>","66,71,82","1500","test","true","71","500","incongruent","green","red","","",""
"-1","-1","poldrack-single-stim","235","436714","0.0-235.0","4fda8a6e-56f1-479a-bde9-64f4ac2fc9a7","","500","500","fixation","","<div class = centerbox><div class = fixation>+</div></div>","none","500","test","","","","","","","","",""
"903","82","poldrack-categorize","236","439227","0.0-236.0","4fda8a6e-56f1-479a-bde9-64f4ac2fc9a7","","1500","250","stim","","<div class = centerbox><div class = stroop-stim style = ""color:red"">RED</div></div>","66,71,82","1500","test","true","82","500","congruent","red","red","","",""
"-1","-1","poldrack-single-stim","237","439987","0.0-237.0","4fda8a6e-56f1-479a-bde9-64f4ac2fc9a7","","500","500","fixation","","<div class = centerbox><div class = fixation>+</div></div>","none","500","test","","","","","","","","",""
"771","66","poldrack-categorize","238","442501","0.0-238.0","4fda8a6e-56f1-479a-bde9-64f4ac2fc9a7","","1500","250","stim","","<div class = centerbox><div class = stroop-stim style = ""color:blue"">GREEN</div></div>","66,71,82","1500","test","true","66","500","incongruent","blue","green","","",""
"-1","-1","poldrack-single-stim","239","443261","0.0-239.0","4fda8a6e-56f1-479a-bde9-64f4ac2fc9a7","","500","500","fixation","","<div class = centerbox><div class = fixation>+</div></div>","none","500","test","","","","","","","","",""
"923","82","poldrack-categorize","240","445774","0.0-240.0","4fda8a6e-56f1-479a-bde9-64f4ac2fc9a7","","1500","250","stim","","<div class = centerbox><div class = stroop-stim style = ""color:red"">BLUE</div></div>","66,71,82","1500","test","true","82","500","incongruent","red","blue","","",""
"-1","-1","poldrack-single-stim","241","446535","0.0-241.0","4fda8a6e-56f1-479a-bde9-64f4ac2fc9a7","","500","500","fixation","","<div class = centerbox><div class = fixation>+</div></div>","none","500","test","","","","","","","","",""
"857","82","poldrack-categorize","242","449045","0.0-242.0","4fda8a6e-56f1-479a-bde9-64f4ac2fc9a7","","1500","250","stim","","<div class = centerbox><div class = stroop-stim style = ""color:red"">GREEN</div></div>","66,71,82","1500","test","true","82","500","incongruent","red","green","","",""
"-1","-1","poldrack-single-stim","243","449801","0.0-243.0","4fda8a6e-56f1-479a-bde9-64f4ac2fc9a7","","500","500","fixation","","<div class = centerbox><div class = fixation>+</div></div>","none","500","test","","","","","","","","",""
"804","71","poldrack-categorize","244","452316","0.0-244.0","4fda8a6e-56f1-479a-bde9-64f4ac2fc9a7","","1500","250","stim","","<div class = centerbox><div class = stroop-stim style = ""color:green"">GREEN</div></div>","66,71,82","1500","test","true","71","500","congruent","green","green","","",""
"164229","","survey-text","245","616815","0.0-246.0","4fda8a6e-56f1-479a-bde9-64f4ac2fc9a7","","","","post task questions","","","","","","","","","","","","{""Q0"":""Several color words flashed on the screen, each word was either typed in red,blue, or green font. I was instructed to press the r key when the font was red, the g key when the font was green, and the b key when the font was blue. I was told to disregard what the word actually was."",""Q1"":""This task seemed easier than it was in the past when I have had to perform it in the past.""}","",""
"1600","13","poldrack-text","246","619421","0.0-247.0","4fda8a6e-56f1-479a-bde9-64f4ac2fc9a7","<div class = centerbox><p class = center-block-text>Thanks for completing this task!</p><p class = center-block-text>Press <strong>enter</strong> to continue.</p></div>","1600","0","end","","","","","","","","","","","","","stroop","true"
"470036","13","text","247","1089492","0.0-248.0","4fda8a6e-56f1-479a-bde9-64f4ac2fc9a7","","","","","","","","","","","","","","","","","",""
