rt,key_press,trial_type,trial_index,time_elapsed,internal_node_id,subject,text,block_duration,timing_post_trial,trial_id,view_history,stimulus,possible_responses,stim_duration,exp_stage,stim_place,stim_id,condition,correct,correct_response,responses,exp_id,feedback_duration,stim_color,stim_word,credit_var8316,13,text,0,8318,0.0-0.0,b94db055-470e-498e-8047-4c905330a6c9,,,,,,,,,,,,,,,,,,,,1391,13,poldrack-text,389,440674,0.0-388.0-0.0,b94db055-470e-498e-8047-4c905330a6c9,<div class = centerbox><p class = center-block-text>Done with instructions. Press <strong>enter</strong> to continue.</p></div>,1391,0,instruction,,,,,,,,,,,,,,,,44310,,poldrack-instructions,390,484984,0.0-388.0-1.0,b94db055-470e-498e-8047-4c905330a6c9,,,,instruction,"[{""page_index"":0,""viewing_time"":44309}]",,,,,,,,,,,,,,,12905,13,poldrack-text,391,498895,0.0-389.0,b94db055-470e-498e-8047-4c905330a6c9,"<div class = centerbox><p class = block-text>We will start with a few practice trials. Remember, press the key corresponding to the <strong>ink</strong> color of the word: ""r"" for words colored red, ""b"" for words colored blue, and ""g"" for words colored green.</p><p class = block-text>Press <strong>enter</strong> to begin practice.</p></div>",12905,1000,practice_intro,,,,,,,,,,,,,,,,-1,-1,poldrack-single-stim,392,500403,0.0-390.0,b94db055-470e-498e-8047-4c905330a6c9,,500,500,fixation,,<div class = centerbox><div class = fixation>+</div></div>,none,500,practice,,,,,,,,,,,-1,-1,poldrack-categorize,393,502910,0.0-391.0,b94db055-470e-498e-8047-4c905330a6c9,,1500,250,stim,,"<div class = centerbox><div class = stroop-stim style = ""color:blue"">GREEN</div></div>","66,71,82",1500,practice,,,incongruent,FALSE,66,,,500,blue,green,-1,-1,poldrack-single-stim,394,503671,0.0-392.0,b94db055-470e-498e-8047-4c905330a6c9,,500,500,fixation,,<div class = centerbox><div class = fixation>+</div></div>,none,500,practice,,,,,,,,,,,838,82,poldrack-categorize,395,506184,0.0-393.0,b94db055-470e-498e-8047-4c905330a6c9,,1500,250,stim,,"<div class = centerbox><div class = stroop-stim style = ""color:red"">GREEN</div></div>","66,71,82",1500,practice,,,incongruent,TRUE,82,,,500,red,green,-1,-1,poldrack-single-stim,396,506944,0.0-394.0,b94db055-470e-498e-8047-4c905330a6c9,,500,500,fixation,,<div class = centerbox><div class = fixation>+</div></div>,none,500,practice,,,,,,,,,,,1215,66,poldrack-categorize,397,509450,0.0-395.0,b94db055-470e-498e-8047-4c905330a6c9,,1500,250,stim,,"<div class = centerbox><div class = stroop-stim style = ""color:blue"">BLUE</div></div>","66,71,82",1500,practice,,,congruent,TRUE,66,,,500,blue,blue,-1,-1,poldrack-single-stim,398,510207,0.0-396.0,b94db055-470e-498e-8047-4c905330a6c9,,500,500,fixation,,<div class = centerbox><div class = fixation>+</div></div>,none,500,practice,,,,,,,,,,,1015,66,poldrack-categorize,399,512720,0.0-397.0,b94db055-470e-498e-8047-4c905330a6c9,,1500,250,stim,,"<div class = centerbox><div class = stroop-stim style = ""color:blue"">RED</div></div>","66,71,82",1500,practice,,,incongruent,TRUE,66,,,500,blue,red,-1,-1,poldrack-single-stim,400,513480,0.0-398.0,b94db055-470e-498e-8047-4c905330a6c9,,500,500,fixation,,<div class = centerbox><div class = fixation>+</div></div>,none,500,practice,,,,,,,,,,,772,82,poldrack-categorize,401,515994,0.0-399.0,b94db055-470e-498e-8047-4c905330a6c9,,1500,250,stim,,"<div class = centerbox><div class = stroop-stim style = ""color:red"">RED</div></div>","66,71,82",1500,practice,,,congruent,TRUE,82,,,500,red,red,-1,-1,poldrack-single-stim,402,516754,0.0-400.0,b94db055-470e-498e-8047-4c905330a6c9,,500,500,fixation,,<div class = centerbox><div class = fixation>+</div></div>,none,500,practice,,,,,,,,,,,666,71,poldrack-categorize,403,519265,0.0-401.0,b94db055-470e-498e-8047-4c905330a6c9,,1500,250,stim,,"<div class = centerbox><div class = stroop-stim style = ""color:green"">RED</div></div>","66,71,82",1500,practice,,,incongruent,TRUE,71,,,500,green,red,-1,-1,poldrack-single-stim,404,520022,0.0-402.0,b94db055-470e-498e-8047-4c905330a6c9,,500,500,fixation,,<div class = centerbox><div class = fixation>+</div></div>,none,500,practice,,,,,,,,,,,582,82,poldrack-categorize,405,522530,0.0-403.0,b94db055-470e-498e-8047-4c905330a6c9,,1500,250,stim,,"<div class = centerbox><div class = stroop-stim style = ""color:red"">RED</div></div>","66,71,82",1500,practice,,,congruent,TRUE,82,,,500,red,red,-1,-1,poldrack-single-stim,406,523290,0.0-404.0,b94db055-470e-498e-8047-4c905330a6c9,,500,500,fixation,,<div class = centerbox><div class = fixation>+</div></div>,none,500,practice,,,,,,,,,,,642,71,poldrack-categorize,407,525803,0.0-405.0,b94db055-470e-498e-8047-4c905330a6c9,,1500,250,stim,,"<div class = centerbox><div class = stroop-stim style = ""color:green"">GREEN</div></div>","66,71,82",1500,practice,,,congruent,TRUE,71,,,500,green,green,-1,-1,poldrack-single-stim,408,526564,0.0-406.0,b94db055-470e-498e-8047-4c905330a6c9,,500,500,fixation,,<div class = centerbox><div class = fixation>+</div></div>,none,500,practice,,,,,,,,,,,720,82,poldrack-categorize,409,529077,0.0-407.0,b94db055-470e-498e-8047-4c905330a6c9,,1500,250,stim,,"<div class = centerbox><div class = stroop-stim style = ""color:red"">GREEN</div></div>","66,71,82",1500,practice,,,incongruent,TRUE,82,,,500,red,green,-1,-1,poldrack-single-stim,410,529838,0.0-408.0,b94db055-470e-498e-8047-4c905330a6c9,,500,500,fixation,,<div class = centerbox><div class = fixation>+</div></div>,none,500,practice,,,,,,,,,,,717,71,poldrack-categorize,411,532351,0.0-409.0,b94db055-470e-498e-8047-4c905330a6c9,,1500,250,stim,,"<div class = centerbox><div class = stroop-stim style = ""color:green"">BLUE</div></div>","66,71,82",1500,practice,,,incongruent,TRUE,71,,,500,green,blue,-1,-1,poldrack-single-stim,412,533112,0.0-410.0,b94db055-470e-498e-8047-4c905330a6c9,,500,500,fixation,,<div class = centerbox><div class = fixation>+</div></div>,none,500,practice,,,,,,,,,,,596,82,poldrack-categorize,413,535625,0.0-411.0,b94db055-470e-498e-8047-4c905330a6c9,,1500,250,stim,,"<div class = centerbox><div class = stroop-stim style = ""color:red"">RED</div></div>","66,71,82",1500,practice,,,congruent,TRUE,82,,,500,red,red,-1,-1,poldrack-single-stim,414,536386,0.0-412.0,b94db055-470e-498e-8047-4c905330a6c9,,500,500,fixation,,<div class = centerbox><div class = fixation>+</div></div>,none,500,practice,,,,,,,,,,,594,66,poldrack-categorize,415,538899,0.0-413.0,b94db055-470e-498e-8047-4c905330a6c9,,1500,250,stim,,"<div class = centerbox><div class = stroop-stim style = ""color:blue"">GREEN</div></div>","66,71,82",1500,practice,,,incongruent,TRUE,66,,,500,blue,green,-1,-1,poldrack-single-stim,416,539659,0.0-414.0,b94db055-470e-498e-8047-4c905330a6c9,,500,500,fixation,,<div class = centerbox><div class = fixation>+</div></div>,none,500,practice,,,,,,,,,,,751,66,poldrack-categorize,417,542173,0.0-415.0,b94db055-470e-498e-8047-4c905330a6c9,,1500,250,stim,,"<div class = centerbox><div class = stroop-stim style = ""color:blue"">BLUE</div></div>","66,71,82",1500,practice,,,congruent,TRUE,66,,,500,blue,blue,-1,-1,poldrack-single-stim,418,542933,0.0-416.0,b94db055-470e-498e-8047-4c905330a6c9,,500,500,fixation,,<div class = centerbox><div class = fixation>+</div></div>,none,500,practice,,,,,,,,,,,669,71,poldrack-categorize,419,545446,0.0-417.0,b94db055-470e-498e-8047-4c905330a6c9,,1500,250,stim,,"<div class = centerbox><div class = stroop-stim style = ""color:green"">GREEN</div></div>","66,71,82",1500,practice,,,congruent,TRUE,71,,,500,green,green,-1,-1,poldrack-single-stim,420,546207,0.0-418.0,b94db055-470e-498e-8047-4c905330a6c9,,500,500,fixation,,<div class = centerbox><div class = fixation>+</div></div>,none,500,practice,,,,,,,,,,,435,82,poldrack-categorize,421,548720,0.0-419.0,b94db055-470e-498e-8047-4c905330a6c9,,1500,250,stim,,"<div class = centerbox><div class = stroop-stim style = ""color:red"">RED</div></div>","66,71,82",1500,practice,,,congruent,TRUE,82,,,500,red,red,-1,-1,poldrack-single-stim,422,549481,0.0-420.0,b94db055-470e-498e-8047-4c905330a6c9,,500,500,fixation,,<div class = centerbox><div class = fixation>+</div></div>,none,500,practice,,,,,,,,,,,682,66,poldrack-categorize,423,551996,0.0-421.0,b94db055-470e-498e-8047-4c905330a6c9,,1500,250,stim,,"<div class = centerbox><div class = stroop-stim style = ""color:blue"">RED</div></div>","66,71,82",1500,practice,,,incongruent,TRUE,66,,,500,blue,red,-1,-1,poldrack-single-stim,424,552754,0.0-422.0,b94db055-470e-498e-8047-4c905330a6c9,,500,500,fixation,,<div class = centerbox><div class = fixation>+</div></div>,none,500,practice,,,,,,,,,,,744,71,poldrack-categorize,425,555268,0.0-423.0,b94db055-470e-498e-8047-4c905330a6c9,,1500,250,stim,,"<div class = centerbox><div class = stroop-stim style = ""color:green"">BLUE</div></div>","66,71,82",1500,practice,,,incongruent,TRUE,71,,,500,green,blue,-1,-1,poldrack-single-stim,426,556028,0.0-424.0,b94db055-470e-498e-8047-4c905330a6c9,,500,500,fixation,,<div class = centerbox><div class = fixation>+</div></div>,none,500,practice,,,,,,,,,,,678,66,poldrack-categorize,427,558542,0.0-425.0,b94db055-470e-498e-8047-4c905330a6c9,,1500,250,stim,,"<div class = centerbox><div class = stroop-stim style = ""color:blue"">BLUE</div></div>","66,71,82",1500,practice,,,congruent,TRUE,66,,,500,blue,blue,-1,-1,poldrack-single-stim,428,559302,0.0-426.0,b94db055-470e-498e-8047-4c905330a6c9,,500,500,fixation,,<div class = centerbox><div class = fixation>+</div></div>,none,500,practice,,,,,,,,,,,619,71,poldrack-categorize,429,561815,0.0-427.0,b94db055-470e-498e-8047-4c905330a6c9,,1500,250,stim,,"<div class = centerbox><div class = stroop-stim style = ""color:green"">RED</div></div>","66,71,82",1500,practice,,,incongruent,TRUE,71,,,500,green,red,-1,-1,poldrack-single-stim,430,562568,0.0-428.0,b94db055-470e-498e-8047-4c905330a6c9,,500,500,fixation,,<div class = centerbox><div class = fixation>+</div></div>,none,500,practice,,,,,,,,,,,581,71,poldrack-categorize,431,565078,0.0-429.0,b94db055-470e-498e-8047-4c905330a6c9,,1500,250,stim,,"<div class = centerbox><div class = stroop-stim style = ""color:green"">GREEN</div></div>","66,71,82",1500,practice,,,congruent,TRUE,71,,,500,green,green,-1,-1,poldrack-single-stim,432,565838,0.0-430.0,b94db055-470e-498e-8047-4c905330a6c9,,500,500,fixation,,<div class = centerbox><div class = fixation>+</div></div>,none,500,practice,,,,,,,,,,,507,82,poldrack-categorize,433,568346,0.0-431.0,b94db055-470e-498e-8047-4c905330a6c9,,1500,250,stim,,"<div class = centerbox><div class = stroop-stim style = ""color:red"">BLUE</div></div>","66,71,82",1500,practice,,,incongruent,TRUE,82,,,500,red,blue,-1,-1,poldrack-single-stim,434,569106,0.0-432.0,b94db055-470e-498e-8047-4c905330a6c9,,500,500,fixation,,<div class = centerbox><div class = fixation>+</div></div>,none,500,practice,,,,,,,,,,,815,82,poldrack-categorize,435,571619,0.0-433.0,b94db055-470e-498e-8047-4c905330a6c9,,1500,250,stim,,"<div class = centerbox><div class = stroop-stim style = ""color:red"">BLUE</div></div>","66,71,82",1500,practice,,,incongruent,TRUE,82,,,500,red,blue,-1,-1,poldrack-single-stim,436,572378,0.0-434.0,b94db055-470e-498e-8047-4c905330a6c9,,500,500,fixation,,<div class = centerbox><div class = fixation>+</div></div>,none,500,practice,,,,,,,,,,,602,71,poldrack-categorize,437,574884,0.0-435.0,b94db055-470e-498e-8047-4c905330a6c9,,1500,250,stim,,"<div class = centerbox><div class = stroop-stim style = ""color:green"">GREEN</div></div>","66,71,82",1500,practice,,,congruent,TRUE,71,,,500,green,green,-1,-1,poldrack-single-stim,438,575642,0.0-436.0,b94db055-470e-498e-8047-4c905330a6c9,,500,500,fixation,,<div class = centerbox><div class = fixation>+</div></div>,none,500,practice,,,,,,,,,,,631,66,poldrack-categorize,439,578155,0.0-437.0,b94db055-470e-498e-8047-4c905330a6c9,,1500,250,stim,,"<div class = centerbox><div class = stroop-stim style = ""color:blue"">BLUE</div></div>","66,71,82",1500,practice,,,congruent,TRUE,66,,,500,blue,blue,4134,13,poldrack-text,440,582545,0.0-439.0,b94db055-470e-498e-8047-4c905330a6c9,<div class = centerbox><p class = center-block-text>We will now start the test. Respond exactly like you did during practice.</p><p class = center-block-text>Press <strong>enter</strong> to begin the test.</p></div>,4134,1000,test_intro,,,,,,,,,,,,,,,,-1,-1,poldrack-single-stim,441,584053,0.0-440.0,b94db055-470e-498e-8047-4c905330a6c9,,500,500,fixation,,<div class = centerbox><div class = fixation>+</div></div>,none,500,test,,,,,,,,,,,711,66,poldrack-categorize,442,586561,0.0-441.0,b94db055-470e-498e-8047-4c905330a6c9,,1500,250,stim,,"<div class = centerbox><div class = stroop-stim style = ""color:blue"">RED</div></div>","66,71,82",1500,test,,,incongruent,TRUE,66,,,500,blue,red,-1,-1,poldrack-single-stim,443,587319,0.0-442.0,b94db055-470e-498e-8047-4c905330a6c9,,500,500,fixation,,<div class = centerbox><div class = fixation>+</div></div>,none,500,test,,,,,,,,,,,643,71,poldrack-categorize,444,589829,0.0-443.0,b94db055-470e-498e-8047-4c905330a6c9,,1500,250,stim,,"<div class = centerbox><div class = stroop-stim style = ""color:green"">BLUE</div></div>","66,71,82",1500,test,,,incongruent,TRUE,71,,,500,green,blue,-1,-1,poldrack-single-stim,445,590587,0.0-444.0,b94db055-470e-498e-8047-4c905330a6c9,,500,500,fixation,,<div class = centerbox><div class = fixation>+</div></div>,none,500,test,,,,,,,,,,,584,66,poldrack-categorize,446,593091,0.0-445.0,b94db055-470e-498e-8047-4c905330a6c9,,1500,250,stim,,"<div class = centerbox><div class = stroop-stim style = ""color:blue"">BLUE</div></div>","66,71,82",1500,test,,,congruent,TRUE,66,,,500,blue,blue,-1,-1,poldrack-single-stim,447,593851,0.0-446.0,b94db055-470e-498e-8047-4c905330a6c9,,500,500,fixation,,<div class = centerbox><div class = fixation>+</div></div>,none,500,test,,,,,,,,,,,452,71,poldrack-categorize,448,596365,0.0-447.0,b94db055-470e-498e-8047-4c905330a6c9,,1500,250,stim,,"<div class = centerbox><div class = stroop-stim style = ""color:green"">GREEN</div></div>","66,71,82",1500,test,,,congruent,TRUE,71,,,500,green,green,-1,-1,poldrack-single-stim,449,597125,0.0-448.0,b94db055-470e-498e-8047-4c905330a6c9,,500,500,fixation,,<div class = centerbox><div class = fixation>+</div></div>,none,500,test,,,,,,,,,,,580,82,poldrack-categorize,450,599638,0.0-449.0,b94db055-470e-498e-8047-4c905330a6c9,,1500,250,stim,,"<div class = centerbox><div class = stroop-stim style = ""color:red"">BLUE</div></div>","66,71,82",1500,test,,,incongruent,TRUE,82,,,500,red,blue,-1,-1,poldrack-single-stim,451,600399,0.0-450.0,b94db055-470e-498e-8047-4c905330a6c9,,500,500,fixation,,<div class = centerbox><div class = fixation>+</div></div>,none,500,test,,,,,,,,,,,490,82,poldrack-categorize,452,602912,0.0-451.0,b94db055-470e-498e-8047-4c905330a6c9,,1500,250,stim,,"<div class = centerbox><div class = stroop-stim style = ""color:red"">RED</div></div>","66,71,82",1500,test,,,congruent,TRUE,82,,,500,red,red,-1,-1,poldrack-single-stim,453,603673,0.0-452.0,b94db055-470e-498e-8047-4c905330a6c9,,500,500,fixation,,<div class = centerbox><div class = fixation>+</div></div>,none,500,test,,,,,,,,,,,528,66,poldrack-categorize,454,606186,0.0-453.0,b94db055-470e-498e-8047-4c905330a6c9,,1500,250,stim,,"<div class = centerbox><div class = stroop-stim style = ""color:blue"">BLUE</div></div>","66,71,82",1500,test,,,congruent,TRUE,66,,,500,blue,blue,-1,-1,poldrack-single-stim,455,606947,0.0-454.0,b94db055-470e-498e-8047-4c905330a6c9,,500,500,fixation,,<div class = centerbox><div class = fixation>+</div></div>,none,500,test,,,,,,,,,,,702,71,poldrack-categorize,456,609460,0.0-455.0,b94db055-470e-498e-8047-4c905330a6c9,,1500,250,stim,,"<div class = centerbox><div class = stroop-stim style = ""color:green"">RED</div></div>","66,71,82",1500,test,,,incongruent,TRUE,71,,,500,green,red,-1,-1,poldrack-single-stim,457,610220,0.0-456.0,b94db055-470e-498e-8047-4c905330a6c9,,500,500,fixation,,<div class = centerbox><div class = fixation>+</div></div>,none,500,test,,,,,,,,,,,540,66,poldrack-categorize,458,612734,0.0-457.0,b94db055-470e-498e-8047-4c905330a6c9,,1500,250,stim,,"<div class = centerbox><div class = stroop-stim style = ""color:blue"">RED</div></div>","66,71,82",1500,test,,,incongruent,TRUE,66,,,500,blue,red,-1,-1,poldrack-single-stim,459,613494,0.0-458.0,b94db055-470e-498e-8047-4c905330a6c9,,500,500,fixation,,<div class = centerbox><div class = fixation>+</div></div>,none,500,test,,,,,,,,,,,536,82,poldrack-categorize,460,616007,0.0-459.0,b94db055-470e-498e-8047-4c905330a6c9,,1500,250,stim,,"<div class = centerbox><div class = stroop-stim style = ""color:red"">RED</div></div>","66,71,82",1500,test,,,congruent,TRUE,82,,,500,red,red,-1,-1,poldrack-single-stim,461,616769,0.0-460.0,b94db055-470e-498e-8047-4c905330a6c9,,500,500,fixation,,<div class = centerbox><div class = fixation>+</div></div>,none,500,test,,,,,,,,,,,504,66,poldrack-categorize,462,619281,0.0-461.0,b94db055-470e-498e-8047-4c905330a6c9,,1500,250,stim,,"<div class = centerbox><div class = stroop-stim style = ""color:blue"">RED</div></div>","66,71,82",1500,test,,,incongruent,TRUE,66,,,500,blue,red,-1,-1,poldrack-single-stim,463,620042,0.0-462.0,b94db055-470e-498e-8047-4c905330a6c9,,500,500,fixation,,<div class = centerbox><div class = fixation>+</div></div>,none,500,test,,,,,,,,,,,525,71,poldrack-categorize,464,622555,0.0-463.0,b94db055-470e-498e-8047-4c905330a6c9,,1500,250,stim,,"<div class = centerbox><div class = stroop-stim style = ""color:green"">BLUE</div></div>","66,71,82",1500,test,,,incongruent,TRUE,71,,,500,green,blue,-1,-1,poldrack-single-stim,465,623316,0.0-464.0,b94db055-470e-498e-8047-4c905330a6c9,,500,500,fixation,,<div class = centerbox><div class = fixation>+</div></div>,none,500,test,,,,,,,,,,,532,82,poldrack-categorize,466,625823,0.0-465.0,b94db055-470e-498e-8047-4c905330a6c9,,1500,250,stim,,"<div class = centerbox><div class = stroop-stim style = ""color:red"">GREEN</div></div>","66,71,82",1500,test,,,incongruent,TRUE,82,,,500,red,green,-1,-1,poldrack-single-stim,467,626584,0.0-466.0,b94db055-470e-498e-8047-4c905330a6c9,,500,500,fixation,,<div class = centerbox><div class = fixation>+</div></div>,none,500,test,,,,,,,,,,,575,82,poldrack-categorize,468,629097,0.0-467.0,b94db055-470e-498e-8047-4c905330a6c9,,1500,250,stim,,"<div class = centerbox><div class = stroop-stim style = ""color:red"">BLUE</div></div>","66,71,82",1500,test,,,incongruent,TRUE,82,,,500,red,blue,-1,-1,poldrack-single-stim,469,629857,0.0-468.0,b94db055-470e-498e-8047-4c905330a6c9,,500,500,fixation,,<div class = centerbox><div class = fixation>+</div></div>,none,500,test,,,,,,,,,,,836,71,poldrack-categorize,470,632367,0.0-469.0,b94db055-470e-498e-8047-4c905330a6c9,,1500,250,stim,,"<div class = centerbox><div class = stroop-stim style = ""color:green"">RED</div></div>","66,71,82",1500,test,,,incongruent,TRUE,71,,,500,green,red,-1,-1,poldrack-single-stim,471,633125,0.0-470.0,b94db055-470e-498e-8047-4c905330a6c9,,500,500,fixation,,<div class = centerbox><div class = fixation>+</div></div>,none,500,test,,,,,,,,,,,672,82,poldrack-categorize,472,635639,0.0-471.0,b94db055-470e-498e-8047-4c905330a6c9,,1500,250,stim,,"<div class = centerbox><div class = stroop-stim style = ""color:red"">GREEN</div></div>","66,71,82",1500,test,,,incongruent,TRUE,82,,,500,red,green,-1,-1,poldrack-single-stim,473,636396,0.0-472.0,b94db055-470e-498e-8047-4c905330a6c9,,500,500,fixation,,<div class = centerbox><div class = fixation>+</div></div>,none,500,test,,,,,,,,,,,644,82,poldrack-categorize,474,638907,0.0-473.0,b94db055-470e-498e-8047-4c905330a6c9,,1500,250,stim,,"<div class = centerbox><div class = stroop-stim style = ""color:red"">BLUE</div></div>","66,71,82",1500,test,,,incongruent,TRUE,82,,,500,red,blue,-1,-1,poldrack-single-stim,475,639667,0.0-474.0,b94db055-470e-498e-8047-4c905330a6c9,,500,500,fixation,,<div class = centerbox><div class = fixation>+</div></div>,none,500,test,,,,,,,,,,,580,71,poldrack-categorize,476,642175,0.0-475.0,b94db055-470e-498e-8047-4c905330a6c9,,1500,250,stim,,"<div class = centerbox><div class = stroop-stim style = ""color:green"">GREEN</div></div>","66,71,82",1500,test,,,congruent,TRUE,71,,,500,green,green,-1,-1,poldrack-single-stim,477,642935,0.0-476.0,b94db055-470e-498e-8047-4c905330a6c9,,500,500,fixation,,<div class = centerbox><div class = fixation>+</div></div>,none,500,test,,,,,,,,,,,477,71,poldrack-categorize,478,645448,0.0-477.0,b94db055-470e-498e-8047-4c905330a6c9,,1500,250,stim,,"<div class = centerbox><div class = stroop-stim style = ""color:green"">GREEN</div></div>","66,71,82",1500,test,,,congruent,TRUE,71,,,500,green,green,-1,-1,poldrack-single-stim,479,646206,0.0-478.0,b94db055-470e-498e-8047-4c905330a6c9,,500,500,fixation,,<div class = centerbox><div class = fixation>+</div></div>,none,500,test,,,,,,,,,,,585,71,poldrack-categorize,480,648717,0.0-479.0,b94db055-470e-498e-8047-4c905330a6c9,,1500,250,stim,,"<div class = centerbox><div class = stroop-stim style = ""color:green"">RED</div></div>","66,71,82",1500,test,,,incongruent,TRUE,71,,,500,green,red,-1,-1,poldrack-single-stim,481,649477,0.0-480.0,b94db055-470e-498e-8047-4c905330a6c9,,500,500,fixation,,<div class = centerbox><div class = fixation>+</div></div>,none,500,test,,,,,,,,,,,489,82,poldrack-categorize,482,651984,0.0-481.0,b94db055-470e-498e-8047-4c905330a6c9,,1500,250,stim,,"<div class = centerbox><div class = stroop-stim style = ""color:red"">RED</div></div>","66,71,82",1500,test,,,congruent,TRUE,82,,,500,red,red,-1,-1,poldrack-single-stim,483,652745,0.0-482.0,b94db055-470e-498e-8047-4c905330a6c9,,500,500,fixation,,<div class = centerbox><div class = fixation>+</div></div>,none,500,test,,,,,,,,,,,555,82,poldrack-categorize,484,655254,0.0-483.0,b94db055-470e-498e-8047-4c905330a6c9,,1500,250,stim,,"<div class = centerbox><div class = stroop-stim style = ""color:red"">RED</div></div>","66,71,82",1500,test,,,congruent,TRUE,82,,,500,red,red,-1,-1,poldrack-single-stim,485,656013,0.0-484.0,b94db055-470e-498e-8047-4c905330a6c9,,500,500,fixation,,<div class = centerbox><div class = fixation>+</div></div>,none,500,test,,,,,,,,,,,590,66,poldrack-categorize,486,658523,0.0-485.0,b94db055-470e-498e-8047-4c905330a6c9,,1500,250,stim,,"<div class = centerbox><div class = stroop-stim style = ""color:blue"">GREEN</div></div>","66,71,82",1500,test,,,incongruent,TRUE,66,,,500,blue,green,-1,-1,poldrack-single-stim,487,659281,0.0-486.0,b94db055-470e-498e-8047-4c905330a6c9,,500,500,fixation,,<div class = centerbox><div class = fixation>+</div></div>,none,500,test,,,,,,,,,,,578,82,poldrack-categorize,488,661794,0.0-487.0,b94db055-470e-498e-8047-4c905330a6c9,,1500,250,stim,,"<div class = centerbox><div class = stroop-stim style = ""color:red"">RED</div></div>","66,71,82",1500,test,,,congruent,TRUE,82,,,500,red,red,-1,-1,poldrack-single-stim,489,662555,0.0-488.0,b94db055-470e-498e-8047-4c905330a6c9,,500,500,fixation,,<div class = centerbox><div class = fixation>+</div></div>,none,500,test,,,,,,,,,,,576,66,poldrack-categorize,490,665068,0.0-489.0,b94db055-470e-498e-8047-4c905330a6c9,,1500,250,stim,,"<div class = centerbox><div class = stroop-stim style = ""color:blue"">BLUE</div></div>","66,71,82",1500,test,,,congruent,TRUE,66,,,500,blue,blue,-1,-1,poldrack-single-stim,491,665829,0.0-490.0,b94db055-470e-498e-8047-4c905330a6c9,,500,500,fixation,,<div class = centerbox><div class = fixation>+</div></div>,none,500,test,,,,,,,,,,,785,82,poldrack-categorize,492,668342,0.0-491.0,b94db055-470e-498e-8047-4c905330a6c9,,1500,250,stim,,"<div class = centerbox><div class = stroop-stim style = ""color:red"">BLUE</div></div>","66,71,82",1500,test,,,incongruent,TRUE,82,,,500,red,blue,-1,-1,poldrack-single-stim,493,669103,0.0-492.0,b94db055-470e-498e-8047-4c905330a6c9,,500,500,fixation,,<div class = centerbox><div class = fixation>+</div></div>,none,500,test,,,,,,,,,,,526,82,poldrack-categorize,494,671616,0.0-493.0,b94db055-470e-498e-8047-4c905330a6c9,,1500,250,stim,,"<div class = centerbox><div class = stroop-stim style = ""color:red"">RED</div></div>","66,71,82",1500,test,,,congruent,TRUE,82,,,500,red,red,-1,-1,poldrack-single-stim,495,672376,0.0-494.0,b94db055-470e-498e-8047-4c905330a6c9,,500,500,fixation,,<div class = centerbox><div class = fixation>+</div></div>,none,500,test,,,,,,,,,,,732,71,poldrack-categorize,496,674890,0.0-495.0,b94db055-470e-498e-8047-4c905330a6c9,,1500,250,stim,,"<div class = centerbox><div class = stroop-stim style = ""color:green"">BLUE</div></div>","66,71,82",1500,test,,,incongruent,TRUE,71,,,500,green,blue,-1,-1,poldrack-single-stim,497,675650,0.0-496.0,b94db055-470e-498e-8047-4c905330a6c9,,500,500,fixation,,<div class = centerbox><div class = fixation>+</div></div>,none,500,test,,,,,,,,,,,674,66,poldrack-categorize,498,678164,0.0-497.0,b94db055-470e-498e-8047-4c905330a6c9,,1500,250,stim,,"<div class = centerbox><div class = stroop-stim style = ""color:blue"">RED</div></div>","66,71,82",1500,test,,,incongruent,TRUE,66,,,500,blue,red,-1,-1,poldrack-single-stim,499,678919,0.0-498.0,b94db055-470e-498e-8047-4c905330a6c9,,500,500,fixation,,<div class = centerbox><div class = fixation>+</div></div>,none,500,test,,,,,,,,,,,709,71,poldrack-categorize,500,681431,0.0-499.0,b94db055-470e-498e-8047-4c905330a6c9,,1500,250,stim,,"<div class = centerbox><div class = stroop-stim style = ""color:green"">BLUE</div></div>","66,71,82",1500,test,,,incongruent,TRUE,71,,,500,green,blue,-1,-1,poldrack-single-stim,501,682192,0.0-500.0,b94db055-470e-498e-8047-4c905330a6c9,,500,500,fixation,,<div class = centerbox><div class = fixation>+</div></div>,none,500,test,,,,,,,,,,,548,71,poldrack-categorize,502,684705,0.0-501.0,b94db055-470e-498e-8047-4c905330a6c9,,1500,250,stim,,"<div class = centerbox><div class = stroop-stim style = ""color:green"">RED</div></div>","66,71,82",1500,test,,,incongruent,TRUE,71,,,500,green,red,-1,-1,poldrack-single-stim,503,685466,0.0-502.0,b94db055-470e-498e-8047-4c905330a6c9,,500,500,fixation,,<div class = centerbox><div class = fixation>+</div></div>,none,500,test,,,,,,,,,,,448,71,poldrack-categorize,504,687979,0.0-503.0,b94db055-470e-498e-8047-4c905330a6c9,,1500,250,stim,,"<div class = centerbox><div class = stroop-stim style = ""color:green"">GREEN</div></div>","66,71,82",1500,test,,,congruent,TRUE,71,,,500,green,green,-1,-1,poldrack-single-stim,505,688734,0.0-504.0,b94db055-470e-498e-8047-4c905330a6c9,,500,500,fixation,,<div class = centerbox><div class = fixation>+</div></div>,none,500,test,,,,,,,,,,,588,82,poldrack-categorize,506,691247,0.0-505.0,b94db055-470e-498e-8047-4c905330a6c9,,1500,250,stim,,"<div class = centerbox><div class = stroop-stim style = ""color:red"">RED</div></div>","66,71,82",1500,test,,,congruent,TRUE,82,,,500,red,red,-1,-1,poldrack-single-stim,507,692003,0.0-506.0,b94db055-470e-498e-8047-4c905330a6c9,,500,500,fixation,,<div class = centerbox><div class = fixation>+</div></div>,none,500,test,,,,,,,,,,,584,71,poldrack-categorize,508,694515,0.0-507.0,b94db055-470e-498e-8047-4c905330a6c9,,1500,250,stim,,"<div class = centerbox><div class = stroop-stim style = ""color:green"">BLUE</div></div>","66,71,82",1500,test,,,incongruent,TRUE,71,,,500,green,blue,-1,-1,poldrack-single-stim,509,695276,0.0-508.0,b94db055-470e-498e-8047-4c905330a6c9,,500,500,fixation,,<div class = centerbox><div class = fixation>+</div></div>,none,500,test,,,,,,,,,,,567,82,poldrack-categorize,510,697789,0.0-509.0,b94db055-470e-498e-8047-4c905330a6c9,,1500,250,stim,,"<div class = centerbox><div class = stroop-stim style = ""color:red"">RED</div></div>","66,71,82",1500,test,,,congruent,TRUE,82,,,500,red,red,-1,-1,poldrack-single-stim,511,698549,0.0-510.0,b94db055-470e-498e-8047-4c905330a6c9,,500,500,fixation,,<div class = centerbox><div class = fixation>+</div></div>,none,500,test,,,,,,,,,,,590,71,poldrack-categorize,512,701063,0.0-511.0,b94db055-470e-498e-8047-4c905330a6c9,,1500,250,stim,,"<div class = centerbox><div class = stroop-stim style = ""color:green"">BLUE</div></div>","66,71,82",1500,test,,,incongruent,TRUE,71,,,500,green,blue,-1,-1,poldrack-single-stim,513,701823,0.0-512.0,b94db055-470e-498e-8047-4c905330a6c9,,500,500,fixation,,<div class = centerbox><div class = fixation>+</div></div>,none,500,test,,,,,,,,,,,524,66,poldrack-categorize,514,704337,0.0-513.0,b94db055-470e-498e-8047-4c905330a6c9,,1500,250,stim,,"<div class = centerbox><div class = stroop-stim style = ""color:blue"">BLUE</div></div>","66,71,82",1500,test,,,congruent,TRUE,66,,,500,blue,blue,-1,-1,poldrack-single-stim,515,705097,0.0-514.0,b94db055-470e-498e-8047-4c905330a6c9,,500,500,fixation,,<div class = centerbox><div class = fixation>+</div></div>,none,500,test,,,,,,,,,,,986,82,poldrack-categorize,516,707610,0.0-515.0,b94db055-470e-498e-8047-4c905330a6c9,,1500,250,stim,,"<div class = centerbox><div class = stroop-stim style = ""color:red"">BLUE</div></div>","66,71,82",1500,test,,,incongruent,TRUE,82,,,500,red,blue,-1,-1,poldrack-single-stim,517,708371,0.0-516.0,b94db055-470e-498e-8047-4c905330a6c9,,500,500,fixation,,<div class = centerbox><div class = fixation>+</div></div>,none,500,test,,,,,,,,,,,464,82,poldrack-categorize,518,710884,0.0-517.0,b94db055-470e-498e-8047-4c905330a6c9,,1500,250,stim,,"<div class = centerbox><div class = stroop-stim style = ""color:red"">BLUE</div></div>","66,71,82",1500,test,,,incongruent,TRUE,82,,,500,red,blue,-1,-1,poldrack-single-stim,519,711645,0.0-518.0,b94db055-470e-498e-8047-4c905330a6c9,,500,500,fixation,,<div class = centerbox><div class = fixation>+</div></div>,none,500,test,,,,,,,,,,,573,71,poldrack-categorize,520,714156,0.0-519.0,b94db055-470e-498e-8047-4c905330a6c9,,1500,250,stim,,"<div class = centerbox><div class = stroop-stim style = ""color:green"">BLUE</div></div>","66,71,82",1500,test,,,incongruent,TRUE,71,,,500,green,blue,-1,-1,poldrack-single-stim,521,714913,0.0-520.0,b94db055-470e-498e-8047-4c905330a6c9,,500,500,fixation,,<div class = centerbox><div class = fixation>+</div></div>,none,500,test,,,,,,,,,,,424,66,poldrack-categorize,522,717426,0.0-521.0,b94db055-470e-498e-8047-4c905330a6c9,,1500,250,stim,,"<div class = centerbox><div class = stroop-stim style = ""color:blue"">RED</div></div>","66,71,82",1500,test,,,incongruent,TRUE,66,,,500,blue,red,-1,-1,poldrack-single-stim,523,718186,0.0-522.0,b94db055-470e-498e-8047-4c905330a6c9,,500,500,fixation,,<div class = centerbox><div class = fixation>+</div></div>,none,500,test,,,,,,,,,,,792,66,poldrack-categorize,524,720700,0.0-523.0,b94db055-470e-498e-8047-4c905330a6c9,,1500,250,stim,,"<div class = centerbox><div class = stroop-stim style = ""color:blue"">GREEN</div></div>","66,71,82",1500,test,,,incongruent,TRUE,66,,,500,blue,green,-1,-1,poldrack-single-stim,525,721460,0.0-524.0,b94db055-470e-498e-8047-4c905330a6c9,,500,500,fixation,,<div class = centerbox><div class = fixation>+</div></div>,none,500,test,,,,,,,,,,,549,71,poldrack-categorize,526,723974,0.0-525.0,b94db055-470e-498e-8047-4c905330a6c9,,1500,250,stim,,"<div class = centerbox><div class = stroop-stim style = ""color:green"">GREEN</div></div>","66,71,82",1500,test,,,congruent,TRUE,71,,,500,green,green,-1,-1,poldrack-single-stim,527,724728,0.0-526.0,b94db055-470e-498e-8047-4c905330a6c9,,500,500,fixation,,<div class = centerbox><div class = fixation>+</div></div>,none,500,test,,,,,,,,,,,663,71,poldrack-categorize,528,727242,0.0-527.0,b94db055-470e-498e-8047-4c905330a6c9,,1500,250,stim,,"<div class = centerbox><div class = stroop-stim style = ""color:green"">RED</div></div>","66,71,82",1500,test,,,incongruent,TRUE,71,,,500,green,red,-1,-1,poldrack-single-stim,529,728002,0.0-528.0,b94db055-470e-498e-8047-4c905330a6c9,,500,500,fixation,,<div class = centerbox><div class = fixation>+</div></div>,none,500,test,,,,,,,,,,,551,66,poldrack-categorize,530,730515,0.0-529.0,b94db055-470e-498e-8047-4c905330a6c9,,1500,250,stim,,"<div class = centerbox><div class = stroop-stim style = ""color:blue"">BLUE</div></div>","66,71,82",1500,test,,,congruent,TRUE,66,,,500,blue,blue,-1,-1,poldrack-single-stim,531,731276,0.0-530.0,b94db055-470e-498e-8047-4c905330a6c9,,500,500,fixation,,<div class = centerbox><div class = fixation>+</div></div>,none,500,test,,,,,,,,,,,573,66,poldrack-categorize,532,733789,0.0-531.0,b94db055-470e-498e-8047-4c905330a6c9,,1500,250,stim,,"<div class = centerbox><div class = stroop-stim style = ""color:blue"">BLUE</div></div>","66,71,82",1500,test,,,congruent,TRUE,66,,,500,blue,blue,-1,-1,poldrack-single-stim,533,734550,0.0-532.0,b94db055-470e-498e-8047-4c905330a6c9,,500,500,fixation,,<div class = centerbox><div class = fixation>+</div></div>,none,500,test,,,,,,,,,,,603,82,poldrack-categorize,534,737063,0.0-533.0,b94db055-470e-498e-8047-4c905330a6c9,,1500,250,stim,,"<div class = centerbox><div class = stroop-stim style = ""color:red"">RED</div></div>","66,71,82",1500,test,,,congruent,TRUE,82,,,500,red,red,-1,-1,poldrack-single-stim,535,737824,0.0-534.0,b94db055-470e-498e-8047-4c905330a6c9,,500,500,fixation,,<div class = centerbox><div class = fixation>+</div></div>,none,500,test,,,,,,,,,,,672,66,poldrack-categorize,536,740332,0.0-535.0,b94db055-470e-498e-8047-4c905330a6c9,,1500,250,stim,,"<div class = centerbox><div class = stroop-stim style = ""color:blue"">GREEN</div></div>","66,71,82",1500,test,,,incongruent,TRUE,66,,,500,blue,green,-1,-1,poldrack-single-stim,537,741092,0.0-536.0,b94db055-470e-498e-8047-4c905330a6c9,,500,500,fixation,,<div class = centerbox><div class = fixation>+</div></div>,none,500,test,,,,,,,,,,,531,82,poldrack-categorize,538,743605,0.0-537.0,b94db055-470e-498e-8047-4c905330a6c9,,1500,250,stim,,"<div class = centerbox><div class = stroop-stim style = ""color:red"">BLUE</div></div>","66,71,82",1500,test,,,incongruent,TRUE,82,,,500,red,blue,-1,-1,poldrack-single-stim,539,744366,0.0-538.0,b94db055-470e-498e-8047-4c905330a6c9,,500,500,fixation,,<div class = centerbox><div class = fixation>+</div></div>,none,500,test,,,,,,,,,,,640,71,poldrack-categorize,540,746879,0.0-539.0,b94db055-470e-498e-8047-4c905330a6c9,,1500,250,stim,,"<div class = centerbox><div class = stroop-stim style = ""color:green"">GREEN</div></div>","66,71,82",1500,test,,,congruent,TRUE,71,,,500,green,green,-1,-1,poldrack-single-stim,541,747639,0.0-540.0,b94db055-470e-498e-8047-4c905330a6c9,,500,500,fixation,,<div class = centerbox><div class = fixation>+</div></div>,none,500,test,,,,,,,,,,,704,71,poldrack-categorize,542,750152,0.0-541.0,b94db055-470e-498e-8047-4c905330a6c9,,1500,250,stim,,"<div class = centerbox><div class = stroop-stim style = ""color:green"">GREEN</div></div>","66,71,82",1500,test,,,congruent,TRUE,71,,,500,green,green,-1,-1,poldrack-single-stim,543,750913,0.0-542.0,b94db055-470e-498e-8047-4c905330a6c9,,500,500,fixation,,<div class = centerbox><div class = fixation>+</div></div>,none,500,test,,,,,,,,,,,502,82,poldrack-categorize,544,753426,0.0-543.0,b94db055-470e-498e-8047-4c905330a6c9,,1500,250,stim,,"<div class = centerbox><div class = stroop-stim style = ""color:red"">RED</div></div>","66,71,82",1500,test,,,congruent,TRUE,82,,,500,red,red,-1,-1,poldrack-single-stim,545,754187,0.0-544.0,b94db055-470e-498e-8047-4c905330a6c9,,500,500,fixation,,<div class = centerbox><div class = fixation>+</div></div>,none,500,test,,,,,,,,,,,484,71,poldrack-categorize,546,756696,0.0-545.0,b94db055-470e-498e-8047-4c905330a6c9,,1500,250,stim,,"<div class = centerbox><div class = stroop-stim style = ""color:green"">GREEN</div></div>","66,71,82",1500,test,,,congruent,TRUE,71,,,500,green,green,-1,-1,poldrack-single-stim,547,757453,0.0-546.0,b94db055-470e-498e-8047-4c905330a6c9,,500,500,fixation,,<div class = centerbox><div class = fixation>+</div></div>,none,500,test,,,,,,,,,,,821,82,poldrack-categorize,548,759959,0.0-547.0,b94db055-470e-498e-8047-4c905330a6c9,,1500,250,stim,,"<div class = centerbox><div class = stroop-stim style = ""color:red"">GREEN</div></div>","66,71,82",1500,test,,,incongruent,TRUE,82,,,500,red,green,-1,-1,poldrack-single-stim,549,760717,0.0-548.0,b94db055-470e-498e-8047-4c905330a6c9,,500,500,fixation,,<div class = centerbox><div class = fixation>+</div></div>,none,500,test,,,,,,,,,,,656,71,poldrack-categorize,550,763230,0.0-549.0,b94db055-470e-498e-8047-4c905330a6c9,,1500,250,stim,,"<div class = centerbox><div class = stroop-stim style = ""color:green"">GREEN</div></div>","66,71,82",1500,test,,,congruent,TRUE,71,,,500,green,green,-1,-1,poldrack-single-stim,551,763985,0.0-550.0,b94db055-470e-498e-8047-4c905330a6c9,,500,500,fixation,,<div class = centerbox><div class = fixation>+</div></div>,none,500,test,,,,,,,,,,,662,71,poldrack-categorize,552,766498,0.0-551.0,b94db055-470e-498e-8047-4c905330a6c9,,1500,250,stim,,"<div class = centerbox><div class = stroop-stim style = ""color:green"">GREEN</div></div>","66,71,82",1500,test,,,congruent,TRUE,71,,,500,green,green,-1,-1,poldrack-single-stim,553,767259,0.0-552.0,b94db055-470e-498e-8047-4c905330a6c9,,500,500,fixation,,<div class = centerbox><div class = fixation>+</div></div>,none,500,test,,,,,,,,,,,763,71,poldrack-categorize,554,769770,0.0-553.0,b94db055-470e-498e-8047-4c905330a6c9,,1500,250,stim,,"<div class = centerbox><div class = stroop-stim style = ""color:green"">GREEN</div></div>","66,71,82",1500,test,,,congruent,TRUE,71,,,500,green,green,-1,-1,poldrack-single-stim,555,770527,0.0-554.0,b94db055-470e-498e-8047-4c905330a6c9,,500,500,fixation,,<div class = centerbox><div class = fixation>+</div></div>,none,500,test,,,,,,,,,,,638,82,poldrack-categorize,556,773040,0.0-555.0,b94db055-470e-498e-8047-4c905330a6c9,,1500,250,stim,,"<div class = centerbox><div class = stroop-stim style = ""color:red"">RED</div></div>","66,71,82",1500,test,,,congruent,TRUE,82,,,500,red,red,-1,-1,poldrack-single-stim,557,773801,0.0-556.0,b94db055-470e-498e-8047-4c905330a6c9,,500,500,fixation,,<div class = centerbox><div class = fixation>+</div></div>,none,500,test,,,,,,,,,,,732,82,poldrack-categorize,558,776314,0.0-557.0,b94db055-470e-498e-8047-4c905330a6c9,,1500,250,stim,,"<div class = centerbox><div class = stroop-stim style = ""color:red"">BLUE</div></div>","66,71,82",1500,test,,,incongruent,TRUE,82,,,500,red,blue,-1,-1,poldrack-single-stim,559,777074,0.0-558.0,b94db055-470e-498e-8047-4c905330a6c9,,500,500,fixation,,<div class = centerbox><div class = fixation>+</div></div>,none,500,test,,,,,,,,,,,772,82,poldrack-categorize,560,779584,0.0-559.0,b94db055-470e-498e-8047-4c905330a6c9,,1500,250,stim,,"<div class = centerbox><div class = stroop-stim style = ""color:red"">GREEN</div></div>","66,71,82",1500,test,,,incongruent,TRUE,82,,,500,red,green,-1,-1,poldrack-single-stim,561,780342,0.0-560.0,b94db055-470e-498e-8047-4c905330a6c9,,500,500,fixation,,<div class = centerbox><div class = fixation>+</div></div>,none,500,test,,,,,,,,,,,662,71,poldrack-categorize,562,782856,0.0-561.0,b94db055-470e-498e-8047-4c905330a6c9,,1500,250,stim,,"<div class = centerbox><div class = stroop-stim style = ""color:green"">RED</div></div>","66,71,82",1500,test,,,incongruent,TRUE,71,,,500,green,red,-1,-1,poldrack-single-stim,563,783616,0.0-562.0,b94db055-470e-498e-8047-4c905330a6c9,,500,500,fixation,,<div class = centerbox><div class = fixation>+</div></div>,none,500,test,,,,,,,,,,,589,71,poldrack-categorize,564,786130,0.0-563.0,b94db055-470e-498e-8047-4c905330a6c9,,1500,250,stim,,"<div class = centerbox><div class = stroop-stim style = ""color:green"">GREEN</div></div>","66,71,82",1500,test,,,congruent,TRUE,71,,,500,green,green,-1,-1,poldrack-single-stim,565,786890,0.0-564.0,b94db055-470e-498e-8047-4c905330a6c9,,500,500,fixation,,<div class = centerbox><div class = fixation>+</div></div>,none,500,test,,,,,,,,,,,395,66,poldrack-categorize,566,789403,0.0-565.0,b94db055-470e-498e-8047-4c905330a6c9,,1500,250,stim,,"<div class = centerbox><div class = stroop-stim style = ""color:blue"">BLUE</div></div>","66,71,82",1500,test,,,congruent,TRUE,66,,,500,blue,blue,-1,-1,poldrack-single-stim,567,790164,0.0-566.0,b94db055-470e-498e-8047-4c905330a6c9,,500,500,fixation,,<div class = centerbox><div class = fixation>+</div></div>,none,500,test,,,,,,,,,,,833,71,poldrack-categorize,568,792677,0.0-567.0,b94db055-470e-498e-8047-4c905330a6c9,,1500,250,stim,,"<div class = centerbox><div class = stroop-stim style = ""color:green"">GREEN</div></div>","66,71,82",1500,test,,,congruent,TRUE,71,,,500,green,green,-1,-1,poldrack-single-stim,569,793438,0.0-568.0,b94db055-470e-498e-8047-4c905330a6c9,,500,500,fixation,,<div class = centerbox><div class = fixation>+</div></div>,none,500,test,,,,,,,,,,,502,71,poldrack-categorize,570,795951,0.0-569.0,b94db055-470e-498e-8047-4c905330a6c9,,1500,250,stim,,"<div class = centerbox><div class = stroop-stim style = ""color:green"">RED</div></div>","66,71,82",1500,test,,,incongruent,TRUE,71,,,500,green,red,-1,-1,poldrack-single-stim,571,796710,0.0-570.0,b94db055-470e-498e-8047-4c905330a6c9,,500,500,fixation,,<div class = centerbox><div class = fixation>+</div></div>,none,500,test,,,,,,,,,,,542,66,poldrack-categorize,572,799225,0.0-571.0,b94db055-470e-498e-8047-4c905330a6c9,,1500,250,stim,,"<div class = centerbox><div class = stroop-stim style = ""color:blue"">BLUE</div></div>","66,71,82",1500,test,,,congruent,TRUE,66,,,500,blue,blue,-1,-1,poldrack-single-stim,573,799985,0.0-572.0,b94db055-470e-498e-8047-4c905330a6c9,,500,500,fixation,,<div class = centerbox><div class = fixation>+</div></div>,none,500,test,,,,,,,,,,,787,82,poldrack-categorize,574,802499,0.0-573.0,b94db055-470e-498e-8047-4c905330a6c9,,1500,250,stim,,"<div class = centerbox><div class = stroop-stim style = ""color:red"">GREEN</div></div>","66,71,82",1500,test,,,incongruent,TRUE,82,,,500,red,green,-1,-1,poldrack-single-stim,575,803259,0.0-574.0,b94db055-470e-498e-8047-4c905330a6c9,,500,500,fixation,,<div class = centerbox><div class = fixation>+</div></div>,none,500,test,,,,,,,,,,,594,66,poldrack-categorize,576,805772,0.0-575.0,b94db055-470e-498e-8047-4c905330a6c9,,1500,250,stim,,"<div class = centerbox><div class = stroop-stim style = ""color:blue"">BLUE</div></div>","66,71,82",1500,test,,,congruent,TRUE,66,,,500,blue,blue,-1,-1,poldrack-single-stim,577,806533,0.0-576.0,b94db055-470e-498e-8047-4c905330a6c9,,500,500,fixation,,<div class = centerbox><div class = fixation>+</div></div>,none,500,test,,,,,,,,,,,719,82,poldrack-categorize,578,809046,0.0-577.0,b94db055-470e-498e-8047-4c905330a6c9,,1500,250,stim,,"<div class = centerbox><div class = stroop-stim style = ""color:red"">GREEN</div></div>","66,71,82",1500,test,,,incongruent,TRUE,82,,,500,red,green,-1,-1,poldrack-single-stim,579,809807,0.0-578.0,b94db055-470e-498e-8047-4c905330a6c9,,500,500,fixation,,<div class = centerbox><div class = fixation>+</div></div>,none,500,test,,,,,,,,,,,677,66,poldrack-categorize,580,812320,0.0-579.0,b94db055-470e-498e-8047-4c905330a6c9,,1500,250,stim,,"<div class = centerbox><div class = stroop-stim style = ""color:blue"">RED</div></div>","66,71,82",1500,test,,,incongruent,TRUE,66,,,500,blue,red,-1,-1,poldrack-single-stim,581,813081,0.0-580.0,b94db055-470e-498e-8047-4c905330a6c9,,500,500,fixation,,<div class = centerbox><div class = fixation>+</div></div>,none,500,test,,,,,,,,,,,539,66,poldrack-categorize,582,815594,0.0-581.0,b94db055-470e-498e-8047-4c905330a6c9,,1500,250,stim,,"<div class = centerbox><div class = stroop-stim style = ""color:blue"">GREEN</div></div>","66,71,82",1500,test,,,incongruent,TRUE,66,,,500,blue,green,-1,-1,poldrack-single-stim,583,816354,0.0-582.0,b94db055-470e-498e-8047-4c905330a6c9,,500,500,fixation,,<div class = centerbox><div class = fixation>+</div></div>,none,500,test,,,,,,,,,,,506,82,poldrack-categorize,584,818868,0.0-583.0,b94db055-470e-498e-8047-4c905330a6c9,,1500,250,stim,,"<div class = centerbox><div class = stroop-stim style = ""color:red"">RED</div></div>","66,71,82",1500,test,,,congruent,TRUE,82,,,500,red,red,-1,-1,poldrack-single-stim,585,819628,0.0-584.0,b94db055-470e-498e-8047-4c905330a6c9,,500,500,fixation,,<div class = centerbox><div class = fixation>+</div></div>,none,500,test,,,,,,,,,,,567,71,poldrack-categorize,586,822141,0.0-585.0,b94db055-470e-498e-8047-4c905330a6c9,,1500,250,stim,,"<div class = centerbox><div class = stroop-stim style = ""color:green"">GREEN</div></div>","66,71,82",1500,test,,,congruent,TRUE,71,,,500,green,green,-1,-1,poldrack-single-stim,587,822899,0.0-586.0,b94db055-470e-498e-8047-4c905330a6c9,,500,500,fixation,,<div class = centerbox><div class = fixation>+</div></div>,none,500,test,,,,,,,,,,,633,66,poldrack-categorize,588,825412,0.0-587.0,b94db055-470e-498e-8047-4c905330a6c9,,1500,250,stim,,"<div class = centerbox><div class = stroop-stim style = ""color:blue"">BLUE</div></div>","66,71,82",1500,test,,,congruent,TRUE,66,,,500,blue,blue,-1,-1,poldrack-single-stim,589,826170,0.0-588.0,b94db055-470e-498e-8047-4c905330a6c9,,500,500,fixation,,<div class = centerbox><div class = fixation>+</div></div>,none,500,test,,,,,,,,,,,575,82,poldrack-categorize,590,828683,0.0-589.0,b94db055-470e-498e-8047-4c905330a6c9,,1500,250,stim,,"<div class = centerbox><div class = stroop-stim style = ""color:red"">GREEN</div></div>","66,71,82",1500,test,,,incongruent,TRUE,82,,,500,red,green,-1,-1,poldrack-single-stim,591,829444,0.0-590.0,b94db055-470e-498e-8047-4c905330a6c9,,500,500,fixation,,<div class = centerbox><div class = fixation>+</div></div>,none,500,test,,,,,,,,,,,479,66,poldrack-categorize,592,831957,0.0-591.0,b94db055-470e-498e-8047-4c905330a6c9,,1500,250,stim,,"<div class = centerbox><div class = stroop-stim style = ""color:blue"">BLUE</div></div>","66,71,82",1500,test,,,congruent,TRUE,66,,,500,blue,blue,-1,-1,poldrack-single-stim,593,832718,0.0-592.0,b94db055-470e-498e-8047-4c905330a6c9,,500,500,fixation,,<div class = centerbox><div class = fixation>+</div></div>,none,500,test,,,,,,,,,,,581,82,poldrack-categorize,594,835225,0.0-593.0,b94db055-470e-498e-8047-4c905330a6c9,,1500,250,stim,,"<div class = centerbox><div class = stroop-stim style = ""color:red"">GREEN</div></div>","66,71,82",1500,test,,,incongruent,TRUE,82,,,500,red,green,-1,-1,poldrack-single-stim,595,835985,0.0-594.0,b94db055-470e-498e-8047-4c905330a6c9,,500,500,fixation,,<div class = centerbox><div class = fixation>+</div></div>,none,500,test,,,,,,,,,,,408,82,poldrack-categorize,596,838499,0.0-595.0,b94db055-470e-498e-8047-4c905330a6c9,,1500,250,stim,,"<div class = centerbox><div class = stroop-stim style = ""color:red"">RED</div></div>","66,71,82",1500,test,,,congruent,TRUE,82,,,500,red,red,-1,-1,poldrack-single-stim,597,839259,0.0-596.0,b94db055-470e-498e-8047-4c905330a6c9,,500,500,fixation,,<div class = centerbox><div class = fixation>+</div></div>,none,500,test,,,,,,,,,,,598,66,poldrack-categorize,598,841773,0.0-597.0,b94db055-470e-498e-8047-4c905330a6c9,,1500,250,stim,,"<div class = centerbox><div class = stroop-stim style = ""color:blue"">BLUE</div></div>","66,71,82",1500,test,,,congruent,TRUE,66,,,500,blue,blue,-1,-1,poldrack-single-stim,599,842530,0.0-598.0,b94db055-470e-498e-8047-4c905330a6c9,,500,500,fixation,,<div class = centerbox><div class = fixation>+</div></div>,none,500,test,,,,,,,,,,,769,66,poldrack-categorize,600,845041,0.0-599.0,b94db055-470e-498e-8047-4c905330a6c9,,1500,250,stim,,"<div class = centerbox><div class = stroop-stim style = ""color:blue"">GREEN</div></div>","66,71,82",1500,test,,,incongruent,TRUE,66,,,500,blue,green,-1,-1,poldrack-single-stim,601,845795,0.0-600.0,b94db055-470e-498e-8047-4c905330a6c9,,500,500,fixation,,<div class = centerbox><div class = fixation>+</div></div>,none,500,test,,,,,,,,,,,469,71,poldrack-categorize,602,848309,0.0-601.0,b94db055-470e-498e-8047-4c905330a6c9,,1500,250,stim,,"<div class = centerbox><div class = stroop-stim style = ""color:green"">GREEN</div></div>","66,71,82",1500,test,,,congruent,TRUE,71,,,500,green,green,-1,-1,poldrack-single-stim,603,849069,0.0-602.0,b94db055-470e-498e-8047-4c905330a6c9,,500,500,fixation,,<div class = centerbox><div class = fixation>+</div></div>,none,500,test,,,,,,,,,,,596,66,poldrack-categorize,604,851577,0.0-603.0,b94db055-470e-498e-8047-4c905330a6c9,,1500,250,stim,,"<div class = centerbox><div class = stroop-stim style = ""color:blue"">RED</div></div>","66,71,82",1500,test,,,incongruent,TRUE,66,,,500,blue,red,-1,-1,poldrack-single-stim,605,852334,0.0-604.0,b94db055-470e-498e-8047-4c905330a6c9,,500,500,fixation,,<div class = centerbox><div class = fixation>+</div></div>,none,500,test,,,,,,,,,,,436,66,poldrack-categorize,606,854845,0.0-605.0,b94db055-470e-498e-8047-4c905330a6c9,,1500,250,stim,,"<div class = centerbox><div class = stroop-stim style = ""color:blue"">BLUE</div></div>","66,71,82",1500,test,,,congruent,TRUE,66,,,500,blue,blue,-1,-1,poldrack-single-stim,607,855605,0.0-606.0,b94db055-470e-498e-8047-4c905330a6c9,,500,500,fixation,,<div class = centerbox><div class = fixation>+</div></div>,none,500,test,,,,,,,,,,,611,82,poldrack-categorize,608,858113,0.0-607.0,b94db055-470e-498e-8047-4c905330a6c9,,1500,250,stim,,"<div class = centerbox><div class = stroop-stim style = ""color:red"">RED</div></div>","66,71,82",1500,test,,,congruent,TRUE,82,,,500,red,red,-1,-1,poldrack-single-stim,609,858873,0.0-608.0,b94db055-470e-498e-8047-4c905330a6c9,,500,500,fixation,,<div class = centerbox><div class = fixation>+</div></div>,none,500,test,,,,,,,,,,,638,66,poldrack-categorize,610,861381,0.0-609.0,b94db055-470e-498e-8047-4c905330a6c9,,1500,250,stim,,"<div class = centerbox><div class = stroop-stim style = ""color:blue"">GREEN</div></div>","66,71,82",1500,test,,,incongruent,TRUE,66,,,500,blue,green,-1,-1,poldrack-single-stim,611,862141,0.0-610.0,b94db055-470e-498e-8047-4c905330a6c9,,500,500,fixation,,<div class = centerbox><div class = fixation>+</div></div>,none,500,test,,,,,,,,,,,650,71,poldrack-categorize,612,864650,0.0-611.0,b94db055-470e-498e-8047-4c905330a6c9,,1500,250,stim,,"<div class = centerbox><div class = stroop-stim style = ""color:green"">BLUE</div></div>","66,71,82",1500,test,,,incongruent,TRUE,71,,,500,green,blue,-1,-1,poldrack-single-stim,613,865409,0.0-612.0,b94db055-470e-498e-8047-4c905330a6c9,,500,500,fixation,,<div class = centerbox><div class = fixation>+</div></div>,none,500,test,,,,,,,,,,,654,66,poldrack-categorize,614,867923,0.0-613.0,b94db055-470e-498e-8047-4c905330a6c9,,1500,250,stim,,"<div class = centerbox><div class = stroop-stim style = ""color:blue"">BLUE</div></div>","66,71,82",1500,test,,,congruent,TRUE,66,,,500,blue,blue,-1,-1,poldrack-single-stim,615,868683,0.0-614.0,b94db055-470e-498e-8047-4c905330a6c9,,500,500,fixation,,<div class = centerbox><div class = fixation>+</div></div>,none,500,test,,,,,,,,,,,509,66,poldrack-categorize,616,871196,0.0-615.0,b94db055-470e-498e-8047-4c905330a6c9,,1500,250,stim,,"<div class = centerbox><div class = stroop-stim style = ""color:blue"">RED</div></div>","66,71,82",1500,test,,,incongruent,TRUE,66,,,500,blue,red,-1,-1,poldrack-single-stim,617,871957,0.0-616.0,b94db055-470e-498e-8047-4c905330a6c9,,500,500,fixation,,<div class = centerbox><div class = fixation>+</div></div>,none,500,test,,,,,,,,,,,395,66,poldrack-categorize,618,874467,0.0-617.0,b94db055-470e-498e-8047-4c905330a6c9,,1500,250,stim,,"<div class = centerbox><div class = stroop-stim style = ""color:blue"">BLUE</div></div>","66,71,82",1500,test,,,congruent,TRUE,66,,,500,blue,blue,-1,-1,poldrack-single-stim,619,875225,0.0-618.0,b94db055-470e-498e-8047-4c905330a6c9,,500,500,fixation,,<div class = centerbox><div class = fixation>+</div></div>,none,500,test,,,,,,,,,,,477,66,poldrack-categorize,620,877738,0.0-619.0,b94db055-470e-498e-8047-4c905330a6c9,,1500,250,stim,,"<div class = centerbox><div class = stroop-stim style = ""color:blue"">GREEN</div></div>","66,71,82",1500,test,,,incongruent,TRUE,66,,,500,blue,green,-1,-1,poldrack-single-stim,621,878499,0.0-620.0,b94db055-470e-498e-8047-4c905330a6c9,,500,500,fixation,,<div class = centerbox><div class = fixation>+</div></div>,none,500,test,,,,,,,,,,,852,71,poldrack-categorize,622,881012,0.0-621.0,b94db055-470e-498e-8047-4c905330a6c9,,1500,250,stim,,"<div class = centerbox><div class = stroop-stim style = ""color:green"">GREEN</div></div>","66,71,82",1500,test,,,congruent,TRUE,71,,,500,green,green,-1,-1,poldrack-single-stim,623,881773,0.0-622.0,b94db055-470e-498e-8047-4c905330a6c9,,500,500,fixation,,<div class = centerbox><div class = fixation>+</div></div>,none,500,test,,,,,,,,,,,570,82,poldrack-categorize,624,884286,0.0-623.0,b94db055-470e-498e-8047-4c905330a6c9,,1500,250,stim,,"<div class = centerbox><div class = stroop-stim style = ""color:red"">RED</div></div>","66,71,82",1500,test,,,congruent,TRUE,82,,,500,red,red,-1,-1,poldrack-single-stim,625,885046,0.0-624.0,b94db055-470e-498e-8047-4c905330a6c9,,500,500,fixation,,<div class = centerbox><div class = fixation>+</div></div>,none,500,test,,,,,,,,,,,425,82,poldrack-categorize,626,887560,0.0-625.0,b94db055-470e-498e-8047-4c905330a6c9,,1500,250,stim,,"<div class = centerbox><div class = stroop-stim style = ""color:red"">RED</div></div>","66,71,82",1500,test,,,congruent,TRUE,82,,,500,red,red,-1,-1,poldrack-single-stim,627,888320,0.0-626.0,b94db055-470e-498e-8047-4c905330a6c9,,500,500,fixation,,<div class = centerbox><div class = fixation>+</div></div>,none,500,test,,,,,,,,,,,1005,71,poldrack-categorize,628,890833,0.0-627.0,b94db055-470e-498e-8047-4c905330a6c9,,1500,250,stim,,"<div class = centerbox><div class = stroop-stim style = ""color:green"">RED</div></div>","66,71,82",1500,test,,,incongruent,TRUE,71,,,500,green,red,-1,-1,poldrack-single-stim,629,891591,0.0-628.0,b94db055-470e-498e-8047-4c905330a6c9,,500,500,fixation,,<div class = centerbox><div class = fixation>+</div></div>,none,500,test,,,,,,,,,,,430,66,poldrack-categorize,630,894101,0.0-629.0,b94db055-470e-498e-8047-4c905330a6c9,,1500,250,stim,,"<div class = centerbox><div class = stroop-stim style = ""color:blue"">BLUE</div></div>","66,71,82",1500,test,,,congruent,TRUE,66,,,500,blue,blue,-1,-1,poldrack-single-stim,631,894862,0.0-630.0,b94db055-470e-498e-8047-4c905330a6c9,,500,500,fixation,,<div class = centerbox><div class = fixation>+</div></div>,none,500,test,,,,,,,,,,,545,66,poldrack-categorize,632,897375,0.0-631.0,b94db055-470e-498e-8047-4c905330a6c9,,1500,250,stim,,"<div class = centerbox><div class = stroop-stim style = ""color:blue"">GREEN</div></div>","66,71,82",1500,test,,,incongruent,TRUE,66,,,500,blue,green,18953,,survey-text,633,916585,0.0-633.0,b94db055-470e-498e-8047-4c905330a6c9,,,,post task questions,,,,,,,,,,,"{""Q0"":""Determine the color of a word presented"",""Q1"":""""}",,,,,3442,13,poldrack-text,634,921029,0.0-634.0,b94db055-470e-498e-8047-4c905330a6c9,<div class = centerbox><p class = center-block-text>Thanks for completing this task!</p><p class = center-block-text>Press <strong>enter</strong> to continue.</p></div>,3442,0,end,,,,,,,,,,,,stroop,,,,TRUE986,13,text,635,922052,0.0-635.0,b94db055-470e-498e-8047-4c905330a6c9,,,,,,,,,,,,,,,,,,,,