rt,key_press,trial_type,trial_index,time_elapsed,internal_node_id,subject,text,block_duration,timing_post_trial,trial_id,view_history,stimulus,possible_responses,stim_duration,exp_stage,correct,correct_response,feedback_duration,condition,stim_color,stim_word,responses,exp_id,credit_var,stim_place,stim_id28830,13,text,0,28832,0.0-0.0,a3dfdb8c-b2df-4194-9823-2e94494f7f77,,,,,,,,,,,,,,,,,,,,3424,13,poldrack-text,1,33262,0.0-1.0-0.0,a3dfdb8c-b2df-4194-9823-2e94494f7f77,<div class = centerbox><p class = center-block-text>Welcome to the experiment. This experiment will take about 8 minutes. Press <strong>enter</strong> to begin.</p></div>,3424,0,instruction,,,,,,,,,,,,,,,,50878,,poldrack-instructions,2,84140,0.0-1.0-1.0,a3dfdb8c-b2df-4194-9823-2e94494f7f77,,,,instruction,"[{""page_index"":0,""viewing_time"":50877}]",,,,,,,,,,,,,,,15027,13,poldrack-text,3,100169,0.0-2.0,a3dfdb8c-b2df-4194-9823-2e94494f7f77,"<div class = centerbox><p class = block-text>We will start with a few practice trials. Remember, press the key corresponding to the <strong>ink</strong> color of the word: ""r"" for words colored red, ""b"" for words colored blue, and ""g"" for words colored green.</p><p class = block-text>Press <strong>enter</strong> to begin practice.</p></div>",15027,1000,practice_intro,,,,,,,,,,,,,,,,-1,-1,poldrack-single-stim,4,101682,0.0-3.0,a3dfdb8c-b2df-4194-9823-2e94494f7f77,,500,500,fixation,,<div class = centerbox><div class = fixation>+</div></div>,none,500,practice,,,,,,,,,,,-1,-1,poldrack-categorize,5,104193,0.0-4.0,a3dfdb8c-b2df-4194-9823-2e94494f7f77,,1500,250,stim,,"<div class = centerbox><div class = stroop-stim style = ""color:green"">RED</div></div>","66,71,82",1500,practice,FALSE,71,500,incongruent,green,red,,,,,-1,-1,poldrack-single-stim,6,104954,0.0-5.0,a3dfdb8c-b2df-4194-9823-2e94494f7f77,,500,500,fixation,,<div class = centerbox><div class = fixation>+</div></div>,none,500,practice,,,,,,,,,,,869,66,poldrack-categorize,7,107467,0.0-6.0,a3dfdb8c-b2df-4194-9823-2e94494f7f77,,1500,250,stim,,"<div class = centerbox><div class = stroop-stim style = ""color:blue"">BLUE</div></div>","66,71,82",1500,practice,TRUE,66,500,congruent,blue,blue,,,,,-1,-1,poldrack-single-stim,8,108226,0.0-7.0,a3dfdb8c-b2df-4194-9823-2e94494f7f77,,500,500,fixation,,<div class = centerbox><div class = fixation>+</div></div>,none,500,practice,,,,,,,,,,,565,82,poldrack-categorize,9,110741,0.0-8.0,a3dfdb8c-b2df-4194-9823-2e94494f7f77,,1500,250,stim,,"<div class = centerbox><div class = stroop-stim style = ""color:red"">RED</div></div>","66,71,82",1500,practice,TRUE,82,500,congruent,red,red,,,,,-1,-1,poldrack-single-stim,10,111502,0.0-9.0,a3dfdb8c-b2df-4194-9823-2e94494f7f77,,500,500,fixation,,<div class = centerbox><div class = fixation>+</div></div>,none,500,practice,,,,,,,,,,,809,66,poldrack-categorize,11,114015,0.0-10.0,a3dfdb8c-b2df-4194-9823-2e94494f7f77,,1500,250,stim,,"<div class = centerbox><div class = stroop-stim style = ""color:blue"">BLUE</div></div>","66,71,82",1500,practice,TRUE,66,500,congruent,blue,blue,,,,,-1,-1,poldrack-single-stim,12,114776,0.0-11.0,a3dfdb8c-b2df-4194-9823-2e94494f7f77,,500,500,fixation,,<div class = centerbox><div class = fixation>+</div></div>,none,500,practice,,,,,,,,,,,983,71,poldrack-categorize,13,117289,0.0-12.0,a3dfdb8c-b2df-4194-9823-2e94494f7f77,,1500,250,stim,,"<div class = centerbox><div class = stroop-stim style = ""color:blue"">GREEN</div></div>","66,71,82",1500,practice,FALSE,66,500,incongruent,blue,green,,,,,-1,-1,poldrack-single-stim,14,118049,0.0-13.0,a3dfdb8c-b2df-4194-9823-2e94494f7f77,,500,500,fixation,,<div class = centerbox><div class = fixation>+</div></div>,none,500,practice,,,,,,,,,,,925,71,poldrack-categorize,15,120563,0.0-14.0,a3dfdb8c-b2df-4194-9823-2e94494f7f77,,1500,250,stim,,"<div class = centerbox><div class = stroop-stim style = ""color:green"">GREEN</div></div>","66,71,82",1500,practice,TRUE,71,500,congruent,green,green,,,,,-1,-1,poldrack-single-stim,16,121323,0.0-15.0,a3dfdb8c-b2df-4194-9823-2e94494f7f77,,500,500,fixation,,<div class = centerbox><div class = fixation>+</div></div>,none,500,practice,,,,,,,,,,,1006,71,poldrack-categorize,17,123836,0.0-16.0,a3dfdb8c-b2df-4194-9823-2e94494f7f77,,1500,250,stim,,"<div class = centerbox><div class = stroop-stim style = ""color:green"">GREEN</div></div>","66,71,82",1500,practice,TRUE,71,500,congruent,green,green,,,,,-1,-1,poldrack-single-stim,18,124596,0.0-17.0,a3dfdb8c-b2df-4194-9823-2e94494f7f77,,500,500,fixation,,<div class = centerbox><div class = fixation>+</div></div>,none,500,practice,,,,,,,,,,,-1,-1,poldrack-categorize,19,127109,0.0-18.0,a3dfdb8c-b2df-4194-9823-2e94494f7f77,,1500,250,stim,,"<div class = centerbox><div class = stroop-stim style = ""color:green"">BLUE</div></div>","66,71,82",1500,practice,FALSE,71,500,incongruent,green,blue,,,,,-1,-1,poldrack-single-stim,20,127865,0.0-19.0,a3dfdb8c-b2df-4194-9823-2e94494f7f77,,500,500,fixation,,<div class = centerbox><div class = fixation>+</div></div>,none,500,practice,,,,,,,,,,,1364,71,poldrack-categorize,21,130378,0.0-20.0,a3dfdb8c-b2df-4194-9823-2e94494f7f77,,1500,250,stim,,"<div class = centerbox><div class = stroop-stim style = ""color:green"">RED</div></div>","66,71,82",1500,practice,TRUE,71,500,incongruent,green,red,,,,,-1,-1,poldrack-single-stim,22,131139,0.0-21.0,a3dfdb8c-b2df-4194-9823-2e94494f7f77,,500,500,fixation,,<div class = centerbox><div class = fixation>+</div></div>,none,500,practice,,,,,,,,,,,1253,66,poldrack-categorize,23,133652,0.0-22.0,a3dfdb8c-b2df-4194-9823-2e94494f7f77,,1500,250,stim,,"<div class = centerbox><div class = stroop-stim style = ""color:blue"">RED</div></div>","66,71,82",1500,practice,TRUE,66,500,incongruent,blue,red,,,,,-1,-1,poldrack-single-stim,24,134413,0.0-23.0,a3dfdb8c-b2df-4194-9823-2e94494f7f77,,500,500,fixation,,<div class = centerbox><div class = fixation>+</div></div>,none,500,practice,,,,,,,,,,,1233,66,poldrack-categorize,25,136923,0.0-24.0,a3dfdb8c-b2df-4194-9823-2e94494f7f77,,1500,250,stim,,"<div class = centerbox><div class = stroop-stim style = ""color:blue"">GREEN</div></div>","66,71,82",1500,practice,TRUE,66,500,incongruent,blue,green,,,,,-1,-1,poldrack-single-stim,26,137681,0.0-25.0,a3dfdb8c-b2df-4194-9823-2e94494f7f77,,500,500,fixation,,<div class = centerbox><div class = fixation>+</div></div>,none,500,practice,,,,,,,,,,,885,71,poldrack-categorize,27,140194,0.0-26.0,a3dfdb8c-b2df-4194-9823-2e94494f7f77,,1500,250,stim,,"<div class = centerbox><div class = stroop-stim style = ""color:green"">GREEN</div></div>","66,71,82",1500,practice,TRUE,71,500,congruent,green,green,,,,,-1,-1,poldrack-single-stim,28,140954,0.0-27.0,a3dfdb8c-b2df-4194-9823-2e94494f7f77,,500,500,fixation,,<div class = centerbox><div class = fixation>+</div></div>,none,500,practice,,,,,,,,,,,907,82,poldrack-categorize,29,143468,0.0-28.0,a3dfdb8c-b2df-4194-9823-2e94494f7f77,,1500,250,stim,,"<div class = centerbox><div class = stroop-stim style = ""color:red"">RED</div></div>","66,71,82",1500,practice,TRUE,82,500,congruent,red,red,,,,,-1,-1,poldrack-single-stim,30,144228,0.0-29.0,a3dfdb8c-b2df-4194-9823-2e94494f7f77,,500,500,fixation,,<div class = centerbox><div class = fixation>+</div></div>,none,500,practice,,,,,,,,,,,953,82,poldrack-categorize,31,146742,0.0-30.0,a3dfdb8c-b2df-4194-9823-2e94494f7f77,,1500,250,stim,,"<div class = centerbox><div class = stroop-stim style = ""color:red"">GREEN</div></div>","66,71,82",1500,practice,TRUE,82,500,incongruent,red,green,,,,,-1,-1,poldrack-single-stim,32,147502,0.0-31.0,a3dfdb8c-b2df-4194-9823-2e94494f7f77,,500,500,fixation,,<div class = centerbox><div class = fixation>+</div></div>,none,500,practice,,,,,,,,,,,847,71,poldrack-categorize,33,150016,0.0-32.0,a3dfdb8c-b2df-4194-9823-2e94494f7f77,,1500,250,stim,,"<div class = centerbox><div class = stroop-stim style = ""color:green"">GREEN</div></div>","66,71,82",1500,practice,TRUE,71,500,congruent,green,green,,,,,-1,-1,poldrack-single-stim,34,150776,0.0-33.0,a3dfdb8c-b2df-4194-9823-2e94494f7f77,,500,500,fixation,,<div class = centerbox><div class = fixation>+</div></div>,none,500,practice,,,,,,,,,,,732,82,poldrack-categorize,35,153289,0.0-34.0,a3dfdb8c-b2df-4194-9823-2e94494f7f77,,1500,250,stim,,"<div class = centerbox><div class = stroop-stim style = ""color:red"">RED</div></div>","66,71,82",1500,practice,TRUE,82,500,congruent,red,red,,,,,-1,-1,poldrack-single-stim,36,154047,0.0-35.0,a3dfdb8c-b2df-4194-9823-2e94494f7f77,,500,500,fixation,,<div class = centerbox><div class = fixation>+</div></div>,none,500,practice,,,,,,,,,,,1465,82,poldrack-categorize,37,156557,0.0-36.0,a3dfdb8c-b2df-4194-9823-2e94494f7f77,,1500,250,stim,,"<div class = centerbox><div class = stroop-stim style = ""color:red"">BLUE</div></div>","66,71,82",1500,practice,TRUE,82,500,incongruent,red,blue,,,,,-1,-1,poldrack-single-stim,38,157318,0.0-37.0,a3dfdb8c-b2df-4194-9823-2e94494f7f77,,500,500,fixation,,<div class = centerbox><div class = fixation>+</div></div>,none,500,practice,,,,,,,,,,,615,66,poldrack-categorize,39,159831,0.0-38.0,a3dfdb8c-b2df-4194-9823-2e94494f7f77,,1500,250,stim,,"<div class = centerbox><div class = stroop-stim style = ""color:blue"">BLUE</div></div>","66,71,82",1500,practice,TRUE,66,500,congruent,blue,blue,,,,,-1,-1,poldrack-single-stim,40,160592,0.0-39.0,a3dfdb8c-b2df-4194-9823-2e94494f7f77,,500,500,fixation,,<div class = centerbox><div class = fixation>+</div></div>,none,500,practice,,,,,,,,,,,1261,82,poldrack-categorize,41,163105,0.0-40.0,a3dfdb8c-b2df-4194-9823-2e94494f7f77,,1500,250,stim,,"<div class = centerbox><div class = stroop-stim style = ""color:red"">GREEN</div></div>","66,71,82",1500,practice,TRUE,82,500,incongruent,red,green,,,,,-1,-1,poldrack-single-stim,42,163863,0.0-41.0,a3dfdb8c-b2df-4194-9823-2e94494f7f77,,500,500,fixation,,<div class = centerbox><div class = fixation>+</div></div>,none,500,practice,,,,,,,,,,,792,66,poldrack-categorize,43,166373,0.0-42.0,a3dfdb8c-b2df-4194-9823-2e94494f7f77,,1500,250,stim,,"<div class = centerbox><div class = stroop-stim style = ""color:blue"">BLUE</div></div>","66,71,82",1500,practice,TRUE,66,500,congruent,blue,blue,,,,,-1,-1,poldrack-single-stim,44,167133,0.0-43.0,a3dfdb8c-b2df-4194-9823-2e94494f7f77,,500,500,fixation,,<div class = centerbox><div class = fixation>+</div></div>,none,500,practice,,,,,,,,,,,1248,82,poldrack-categorize,45,169647,0.0-44.0,a3dfdb8c-b2df-4194-9823-2e94494f7f77,,1500,250,stim,,"<div class = centerbox><div class = stroop-stim style = ""color:red"">BLUE</div></div>","66,71,82",1500,practice,TRUE,82,500,incongruent,red,blue,,,,,-1,-1,poldrack-single-stim,46,170407,0.0-45.0,a3dfdb8c-b2df-4194-9823-2e94494f7f77,,500,500,fixation,,<div class = centerbox><div class = fixation>+</div></div>,none,500,practice,,,,,,,,,,,884,71,poldrack-categorize,47,172920,0.0-46.0,a3dfdb8c-b2df-4194-9823-2e94494f7f77,,1500,250,stim,,"<div class = centerbox><div class = stroop-stim style = ""color:green"">BLUE</div></div>","66,71,82",1500,practice,TRUE,71,500,incongruent,green,blue,,,,,-1,-1,poldrack-single-stim,48,173677,0.0-47.0,a3dfdb8c-b2df-4194-9823-2e94494f7f77,,500,500,fixation,,<div class = centerbox><div class = fixation>+</div></div>,none,500,practice,,,,,,,,,,,672,82,poldrack-categorize,49,176188,0.0-48.0,a3dfdb8c-b2df-4194-9823-2e94494f7f77,,1500,250,stim,,"<div class = centerbox><div class = stroop-stim style = ""color:red"">RED</div></div>","66,71,82",1500,practice,TRUE,82,500,congruent,red,red,,,,,-1,-1,poldrack-single-stim,50,176949,0.0-49.0,a3dfdb8c-b2df-4194-9823-2e94494f7f77,,500,500,fixation,,<div class = centerbox><div class = fixation>+</div></div>,none,500,practice,,,,,,,,,,,910,66,poldrack-categorize,51,179462,0.0-50.0,a3dfdb8c-b2df-4194-9823-2e94494f7f77,,1500,250,stim,,"<div class = centerbox><div class = stroop-stim style = ""color:blue"">RED</div></div>","66,71,82",1500,practice,TRUE,66,500,incongruent,blue,red,,,,,4215,13,poldrack-text,52,183932,0.0-52.0,a3dfdb8c-b2df-4194-9823-2e94494f7f77,<div class = centerbox><p class = center-block-text>We will now start the test. Respond exactly like you did during practice.</p><p class = center-block-text>Press <strong>enter</strong> to begin the test.</p></div>,4215,1000,test_intro,,,,,,,,,,,,,,,,-1,-1,poldrack-single-stim,53,185441,0.0-53.0,a3dfdb8c-b2df-4194-9823-2e94494f7f77,,500,500,fixation,,<div class = centerbox><div class = fixation>+</div></div>,none,500,test,,,,,,,,,,,781,82,poldrack-categorize,54,187945,0.0-54.0,a3dfdb8c-b2df-4194-9823-2e94494f7f77,,1500,250,stim,,"<div class = centerbox><div class = stroop-stim style = ""color:red"">BLUE</div></div>","66,71,82",1500,test,TRUE,82,500,incongruent,red,blue,,,,,-1,-1,poldrack-single-stim,55,188703,0.0-55.0,a3dfdb8c-b2df-4194-9823-2e94494f7f77,,500,500,fixation,,<div class = centerbox><div class = fixation>+</div></div>,none,500,test,,,,,,,,,,,963,82,poldrack-categorize,56,191217,0.0-56.0,a3dfdb8c-b2df-4194-9823-2e94494f7f77,,1500,250,stim,,"<div class = centerbox><div class = stroop-stim style = ""color:red"">GREEN</div></div>","66,71,82",1500,test,TRUE,82,500,incongruent,red,green,,,,,-1,-1,poldrack-single-stim,57,191976,0.0-57.0,a3dfdb8c-b2df-4194-9823-2e94494f7f77,,500,500,fixation,,<div class = centerbox><div class = fixation>+</div></div>,none,500,test,,,,,,,,,,,595,66,poldrack-categorize,58,194484,0.0-58.0,a3dfdb8c-b2df-4194-9823-2e94494f7f77,,1500,250,stim,,"<div class = centerbox><div class = stroop-stim style = ""color:blue"">RED</div></div>","66,71,82",1500,test,TRUE,66,500,incongruent,blue,red,,,,,-1,-1,poldrack-single-stim,59,195253,0.0-59.0,a3dfdb8c-b2df-4194-9823-2e94494f7f77,,500,500,fixation,,<div class = centerbox><div class = fixation>+</div></div>,none,500,test,,,,,,,,,,,839,82,poldrack-categorize,60,197764,0.0-60.0,a3dfdb8c-b2df-4194-9823-2e94494f7f77,,1500,250,stim,,"<div class = centerbox><div class = stroop-stim style = ""color:red"">BLUE</div></div>","66,71,82",1500,test,TRUE,82,500,incongruent,red,blue,,,,,-1,-1,poldrack-single-stim,61,198520,0.0-61.0,a3dfdb8c-b2df-4194-9823-2e94494f7f77,,500,500,fixation,,<div class = centerbox><div class = fixation>+</div></div>,none,500,test,,,,,,,,,,,962,66,poldrack-categorize,62,201032,0.0-62.0,a3dfdb8c-b2df-4194-9823-2e94494f7f77,,1500,250,stim,,"<div class = centerbox><div class = stroop-stim style = ""color:blue"">RED</div></div>","66,71,82",1500,test,TRUE,66,500,incongruent,blue,red,,,,,-1,-1,poldrack-single-stim,63,201793,0.0-63.0,a3dfdb8c-b2df-4194-9823-2e94494f7f77,,500,500,fixation,,<div class = centerbox><div class = fixation>+</div></div>,none,500,test,,,,,,,,,,,890,82,poldrack-categorize,64,204306,0.0-64.0,a3dfdb8c-b2df-4194-9823-2e94494f7f77,,1500,250,stim,,"<div class = centerbox><div class = stroop-stim style = ""color:red"">BLUE</div></div>","66,71,82",1500,test,TRUE,82,500,incongruent,red,blue,,,,,-1,-1,poldrack-single-stim,65,205067,0.0-65.0,a3dfdb8c-b2df-4194-9823-2e94494f7f77,,500,500,fixation,,<div class = centerbox><div class = fixation>+</div></div>,none,500,test,,,,,,,,,,,817,82,poldrack-categorize,66,207580,0.0-66.0,a3dfdb8c-b2df-4194-9823-2e94494f7f77,,1500,250,stim,,"<div class = centerbox><div class = stroop-stim style = ""color:red"">GREEN</div></div>","66,71,82",1500,test,TRUE,82,500,incongruent,red,green,,,,,-1,-1,poldrack-single-stim,67,208337,0.0-67.0,a3dfdb8c-b2df-4194-9823-2e94494f7f77,,500,500,fixation,,<div class = centerbox><div class = fixation>+</div></div>,none,500,test,,,,,,,,,,,851,66,poldrack-categorize,68,210848,0.0-68.0,a3dfdb8c-b2df-4194-9823-2e94494f7f77,,1500,250,stim,,"<div class = centerbox><div class = stroop-stim style = ""color:blue"">GREEN</div></div>","66,71,82",1500,test,TRUE,66,500,incongruent,blue,green,,,,,-1,-1,poldrack-single-stim,69,211609,0.0-69.0,a3dfdb8c-b2df-4194-9823-2e94494f7f77,,500,500,fixation,,<div class = centerbox><div class = fixation>+</div></div>,none,500,test,,,,,,,,,,,690,66,poldrack-categorize,70,214122,0.0-70.0,a3dfdb8c-b2df-4194-9823-2e94494f7f77,,1500,250,stim,,"<div class = centerbox><div class = stroop-stim style = ""color:blue"">BLUE</div></div>","66,71,82",1500,test,TRUE,66,500,congruent,blue,blue,,,,,-1,-1,poldrack-single-stim,71,214882,0.0-71.0,a3dfdb8c-b2df-4194-9823-2e94494f7f77,,500,500,fixation,,<div class = centerbox><div class = fixation>+</div></div>,none,500,test,,,,,,,,,,,830,71,poldrack-categorize,72,217395,0.0-72.0,a3dfdb8c-b2df-4194-9823-2e94494f7f77,,1500,250,stim,,"<div class = centerbox><div class = stroop-stim style = ""color:green"">BLUE</div></div>","66,71,82",1500,test,TRUE,71,500,incongruent,green,blue,,,,,-1,-1,poldrack-single-stim,73,218152,0.0-73.0,a3dfdb8c-b2df-4194-9823-2e94494f7f77,,500,500,fixation,,<div class = centerbox><div class = fixation>+</div></div>,none,500,test,,,,,,,,,,,529,71,poldrack-categorize,74,220663,0.0-74.0,a3dfdb8c-b2df-4194-9823-2e94494f7f77,,1500,250,stim,,"<div class = centerbox><div class = stroop-stim style = ""color:green"">GREEN</div></div>","66,71,82",1500,test,TRUE,71,500,congruent,green,green,,,,,-1,-1,poldrack-single-stim,75,221424,0.0-75.0,a3dfdb8c-b2df-4194-9823-2e94494f7f77,,500,500,fixation,,<div class = centerbox><div class = fixation>+</div></div>,none,500,test,,,,,,,,,,,530,82,poldrack-categorize,76,223931,0.0-76.0,a3dfdb8c-b2df-4194-9823-2e94494f7f77,,1500,250,stim,,"<div class = centerbox><div class = stroop-stim style = ""color:red"">RED</div></div>","66,71,82",1500,test,TRUE,82,500,congruent,red,red,,,,,-1,-1,poldrack-single-stim,77,224689,0.0-77.0,a3dfdb8c-b2df-4194-9823-2e94494f7f77,,500,500,fixation,,<div class = centerbox><div class = fixation>+</div></div>,none,500,test,,,,,,,,,,,939,71,poldrack-categorize,78,227194,0.0-78.0,a3dfdb8c-b2df-4194-9823-2e94494f7f77,,1500,250,stim,,"<div class = centerbox><div class = stroop-stim style = ""color:green"">BLUE</div></div>","66,71,82",1500,test,TRUE,71,500,incongruent,green,blue,,,,,-1,-1,poldrack-single-stim,79,227954,0.0-79.0,a3dfdb8c-b2df-4194-9823-2e94494f7f77,,500,500,fixation,,<div class = centerbox><div class = fixation>+</div></div>,none,500,test,,,,,,,,,,,517,71,poldrack-categorize,80,230467,0.0-80.0,a3dfdb8c-b2df-4194-9823-2e94494f7f77,,1500,250,stim,,"<div class = centerbox><div class = stroop-stim style = ""color:green"">GREEN</div></div>","66,71,82",1500,test,TRUE,71,500,congruent,green,green,,,,,-1,-1,poldrack-single-stim,81,231228,0.0-81.0,a3dfdb8c-b2df-4194-9823-2e94494f7f77,,500,500,fixation,,<div class = centerbox><div class = fixation>+</div></div>,none,500,test,,,,,,,,,,,707,82,poldrack-categorize,82,233741,0.0-82.0,a3dfdb8c-b2df-4194-9823-2e94494f7f77,,1500,250,stim,,"<div class = centerbox><div class = stroop-stim style = ""color:red"">RED</div></div>","66,71,82",1500,test,TRUE,82,500,congruent,red,red,,,,,-1,-1,poldrack-single-stim,83,234502,0.0-83.0,a3dfdb8c-b2df-4194-9823-2e94494f7f77,,500,500,fixation,,<div class = centerbox><div class = fixation>+</div></div>,none,500,test,,,,,,,,,,,859,71,poldrack-categorize,84,237015,0.0-84.0,a3dfdb8c-b2df-4194-9823-2e94494f7f77,,1500,250,stim,,"<div class = centerbox><div class = stroop-stim style = ""color:green"">RED</div></div>","66,71,82",1500,test,TRUE,71,500,incongruent,green,red,,,,,-1,-1,poldrack-single-stim,85,237776,0.0-85.0,a3dfdb8c-b2df-4194-9823-2e94494f7f77,,500,500,fixation,,<div class = centerbox><div class = fixation>+</div></div>,none,500,test,,,,,,,,,,,770,66,poldrack-categorize,86,240289,0.0-86.0,a3dfdb8c-b2df-4194-9823-2e94494f7f77,,1500,250,stim,,"<div class = centerbox><div class = stroop-stim style = ""color:blue"">GREEN</div></div>","66,71,82",1500,test,TRUE,66,500,incongruent,blue,green,,,,,-1,-1,poldrack-single-stim,87,241050,0.0-87.0,a3dfdb8c-b2df-4194-9823-2e94494f7f77,,500,500,fixation,,<div class = centerbox><div class = fixation>+</div></div>,none,500,test,,,,,,,,,,,1039,71,poldrack-categorize,88,243563,0.0-88.0,a3dfdb8c-b2df-4194-9823-2e94494f7f77,,1500,250,stim,,"<div class = centerbox><div class = stroop-stim style = ""color:green"">RED</div></div>","66,71,82",1500,test,TRUE,71,500,incongruent,green,red,,,,,-1,-1,poldrack-single-stim,89,244323,0.0-89.0,a3dfdb8c-b2df-4194-9823-2e94494f7f77,,500,500,fixation,,<div class = centerbox><div class = fixation>+</div></div>,none,500,test,,,,,,,,,,,803,66,poldrack-categorize,90,246838,0.0-90.0,a3dfdb8c-b2df-4194-9823-2e94494f7f77,,1500,250,stim,,"<div class = centerbox><div class = stroop-stim style = ""color:blue"">RED</div></div>","66,71,82",1500,test,TRUE,66,500,incongruent,blue,red,,,,,-1,-1,poldrack-single-stim,91,247597,0.0-91.0,a3dfdb8c-b2df-4194-9823-2e94494f7f77,,500,500,fixation,,<div class = centerbox><div class = fixation>+</div></div>,none,500,test,,,,,,,,,,,689,66,poldrack-categorize,92,250110,0.0-92.0,a3dfdb8c-b2df-4194-9823-2e94494f7f77,,1500,250,stim,,"<div class = centerbox><div class = stroop-stim style = ""color:blue"">BLUE</div></div>","66,71,82",1500,test,TRUE,66,500,congruent,blue,blue,,,,,-1,-1,poldrack-single-stim,93,250871,0.0-93.0,a3dfdb8c-b2df-4194-9823-2e94494f7f77,,500,500,fixation,,<div class = centerbox><div class = fixation>+</div></div>,none,500,test,,,,,,,,,,,801,66,poldrack-categorize,94,253384,0.0-94.0,a3dfdb8c-b2df-4194-9823-2e94494f7f77,,1500,250,stim,,"<div class = centerbox><div class = stroop-stim style = ""color:blue"">RED</div></div>","66,71,82",1500,test,TRUE,66,500,incongruent,blue,red,,,,,-1,-1,poldrack-single-stim,95,254145,0.0-95.0,a3dfdb8c-b2df-4194-9823-2e94494f7f77,,500,500,fixation,,<div class = centerbox><div class = fixation>+</div></div>,none,500,test,,,,,,,,,,,991,82,poldrack-categorize,96,256658,0.0-96.0,a3dfdb8c-b2df-4194-9823-2e94494f7f77,,1500,250,stim,,"<div class = centerbox><div class = stroop-stim style = ""color:red"">GREEN</div></div>","66,71,82",1500,test,TRUE,82,500,incongruent,red,green,,,,,-1,-1,poldrack-single-stim,97,257418,0.0-97.0,a3dfdb8c-b2df-4194-9823-2e94494f7f77,,500,500,fixation,,<div class = centerbox><div class = fixation>+</div></div>,none,500,test,,,,,,,,,,,516,66,poldrack-categorize,98,259932,0.0-98.0,a3dfdb8c-b2df-4194-9823-2e94494f7f77,,1500,250,stim,,"<div class = centerbox><div class = stroop-stim style = ""color:blue"">BLUE</div></div>","66,71,82",1500,test,TRUE,66,500,congruent,blue,blue,,,,,-1,-1,poldrack-single-stim,99,260692,0.0-99.0,a3dfdb8c-b2df-4194-9823-2e94494f7f77,,500,500,fixation,,<div class = centerbox><div class = fixation>+</div></div>,none,500,test,,,,,,,,,,,707,66,poldrack-categorize,100,263205,0.0-100.0,a3dfdb8c-b2df-4194-9823-2e94494f7f77,,1500,250,stim,,"<div class = centerbox><div class = stroop-stim style = ""color:blue"">GREEN</div></div>","66,71,82",1500,test,TRUE,66,500,incongruent,blue,green,,,,,-1,-1,poldrack-single-stim,101,263963,0.0-101.0,a3dfdb8c-b2df-4194-9823-2e94494f7f77,,500,500,fixation,,<div class = centerbox><div class = fixation>+</div></div>,none,500,test,,,,,,,,,,,525,66,poldrack-categorize,102,266474,0.0-102.0,a3dfdb8c-b2df-4194-9823-2e94494f7f77,,1500,250,stim,,"<div class = centerbox><div class = stroop-stim style = ""color:blue"">BLUE</div></div>","66,71,82",1500,test,TRUE,66,500,congruent,blue,blue,,,,,-1,-1,poldrack-single-stim,103,267234,0.0-103.0,a3dfdb8c-b2df-4194-9823-2e94494f7f77,,500,500,fixation,,<div class = centerbox><div class = fixation>+</div></div>,none,500,test,,,,,,,,,,,411,66,poldrack-categorize,104,269747,0.0-104.0,a3dfdb8c-b2df-4194-9823-2e94494f7f77,,1500,250,stim,,"<div class = centerbox><div class = stroop-stim style = ""color:blue"">BLUE</div></div>","66,71,82",1500,test,TRUE,66,500,congruent,blue,blue,,,,,-1,-1,poldrack-single-stim,105,270508,0.0-105.0,a3dfdb8c-b2df-4194-9823-2e94494f7f77,,500,500,fixation,,<div class = centerbox><div class = fixation>+</div></div>,none,500,test,,,,,,,,,,,762,82,poldrack-categorize,106,273021,0.0-106.0,a3dfdb8c-b2df-4194-9823-2e94494f7f77,,1500,250,stim,,"<div class = centerbox><div class = stroop-stim style = ""color:red"">BLUE</div></div>","66,71,82",1500,test,TRUE,82,500,incongruent,red,blue,,,,,-1,-1,poldrack-single-stim,107,273780,0.0-107.0,a3dfdb8c-b2df-4194-9823-2e94494f7f77,,500,500,fixation,,<div class = centerbox><div class = fixation>+</div></div>,none,500,test,,,,,,,,,,,817,71,poldrack-categorize,108,276295,0.0-108.0,a3dfdb8c-b2df-4194-9823-2e94494f7f77,,1500,250,stim,,"<div class = centerbox><div class = stroop-stim style = ""color:green"">BLUE</div></div>","66,71,82",1500,test,TRUE,71,500,incongruent,green,blue,,,,,-1,-1,poldrack-single-stim,109,277055,0.0-109.0,a3dfdb8c-b2df-4194-9823-2e94494f7f77,,500,500,fixation,,<div class = centerbox><div class = fixation>+</div></div>,none,500,test,,,,,,,,,,,885,82,poldrack-categorize,110,279569,0.0-110.0,a3dfdb8c-b2df-4194-9823-2e94494f7f77,,1500,250,stim,,"<div class = centerbox><div class = stroop-stim style = ""color:red"">GREEN</div></div>","66,71,82",1500,test,TRUE,82,500,incongruent,red,green,,,,,-1,-1,poldrack-single-stim,111,280329,0.0-111.0,a3dfdb8c-b2df-4194-9823-2e94494f7f77,,500,500,fixation,,<div class = centerbox><div class = fixation>+</div></div>,none,500,test,,,,,,,,,,,861,82,poldrack-categorize,112,282843,0.0-112.0,a3dfdb8c-b2df-4194-9823-2e94494f7f77,,1500,250,stim,,"<div class = centerbox><div class = stroop-stim style = ""color:green"">BLUE</div></div>","66,71,82",1500,test,FALSE,71,500,incongruent,green,blue,,,,,-1,-1,poldrack-single-stim,113,283603,0.0-113.0,a3dfdb8c-b2df-4194-9823-2e94494f7f77,,500,500,fixation,,<div class = centerbox><div class = fixation>+</div></div>,none,500,test,,,,,,,,,,,617,82,poldrack-categorize,114,286116,0.0-114.0,a3dfdb8c-b2df-4194-9823-2e94494f7f77,,1500,250,stim,,"<div class = centerbox><div class = stroop-stim style = ""color:red"">RED</div></div>","66,71,82",1500,test,TRUE,82,500,congruent,red,red,,,,,-1,-1,poldrack-single-stim,115,286877,0.0-115.0,a3dfdb8c-b2df-4194-9823-2e94494f7f77,,500,500,fixation,,<div class = centerbox><div class = fixation>+</div></div>,none,500,test,,,,,,,,,,,721,71,poldrack-categorize,116,289390,0.0-116.0,a3dfdb8c-b2df-4194-9823-2e94494f7f77,,1500,250,stim,,"<div class = centerbox><div class = stroop-stim style = ""color:green"">GREEN</div></div>","66,71,82",1500,test,TRUE,71,500,congruent,green,green,,,,,-1,-1,poldrack-single-stim,117,290151,0.0-117.0,a3dfdb8c-b2df-4194-9823-2e94494f7f77,,500,500,fixation,,<div class = centerbox><div class = fixation>+</div></div>,none,500,test,,,,,,,,,,,597,82,poldrack-categorize,118,292664,0.0-118.0,a3dfdb8c-b2df-4194-9823-2e94494f7f77,,1500,250,stim,,"<div class = centerbox><div class = stroop-stim style = ""color:red"">RED</div></div>","66,71,82",1500,test,TRUE,82,500,congruent,red,red,,,,,-1,-1,poldrack-single-stim,119,293425,0.0-119.0,a3dfdb8c-b2df-4194-9823-2e94494f7f77,,500,500,fixation,,<div class = centerbox><div class = fixation>+</div></div>,none,500,test,,,,,,,,,,,540,66,poldrack-categorize,120,295938,0.0-120.0,a3dfdb8c-b2df-4194-9823-2e94494f7f77,,1500,250,stim,,"<div class = centerbox><div class = stroop-stim style = ""color:blue"">BLUE</div></div>","66,71,82",1500,test,TRUE,66,500,congruent,blue,blue,,,,,-1,-1,poldrack-single-stim,121,296698,0.0-121.0,a3dfdb8c-b2df-4194-9823-2e94494f7f77,,500,500,fixation,,<div class = centerbox><div class = fixation>+</div></div>,none,500,test,,,,,,,,,,,514,66,poldrack-categorize,122,299212,0.0-122.0,a3dfdb8c-b2df-4194-9823-2e94494f7f77,,1500,250,stim,,"<div class = centerbox><div class = stroop-stim style = ""color:blue"">BLUE</div></div>","66,71,82",1500,test,TRUE,66,500,congruent,blue,blue,,,,,-1,-1,poldrack-single-stim,123,299972,0.0-123.0,a3dfdb8c-b2df-4194-9823-2e94494f7f77,,500,500,fixation,,<div class = centerbox><div class = fixation>+</div></div>,none,500,test,,,,,,,,,,,505,82,poldrack-categorize,124,302480,0.0-124.0,a3dfdb8c-b2df-4194-9823-2e94494f7f77,,1500,250,stim,,"<div class = centerbox><div class = stroop-stim style = ""color:red"">RED</div></div>","66,71,82",1500,test,TRUE,82,500,congruent,red,red,,,,,-1,-1,poldrack-single-stim,125,303234,0.0-125.0,a3dfdb8c-b2df-4194-9823-2e94494f7f77,,500,500,fixation,,<div class = centerbox><div class = fixation>+</div></div>,none,500,test,,,,,,,,,,,769,66,poldrack-categorize,126,305748,0.0-126.0,a3dfdb8c-b2df-4194-9823-2e94494f7f77,,1500,250,stim,,"<div class = centerbox><div class = stroop-stim style = ""color:blue"">RED</div></div>","66,71,82",1500,test,TRUE,66,500,incongruent,blue,red,,,,,-1,-1,poldrack-single-stim,127,306502,0.0-127.0,a3dfdb8c-b2df-4194-9823-2e94494f7f77,,500,500,fixation,,<div class = centerbox><div class = fixation>+</div></div>,none,500,test,,,,,,,,,,,637,71,poldrack-categorize,128,309016,0.0-128.0,a3dfdb8c-b2df-4194-9823-2e94494f7f77,,1500,250,stim,,"<div class = centerbox><div class = stroop-stim style = ""color:green"">BLUE</div></div>","66,71,82",1500,test,TRUE,71,500,incongruent,green,blue,,,,,-1,-1,poldrack-single-stim,129,309776,0.0-129.0,a3dfdb8c-b2df-4194-9823-2e94494f7f77,,500,500,fixation,,<div class = centerbox><div class = fixation>+</div></div>,none,500,test,,,,,,,,,,,676,71,poldrack-categorize,130,312290,0.0-130.0,a3dfdb8c-b2df-4194-9823-2e94494f7f77,,1500,250,stim,,"<div class = centerbox><div class = stroop-stim style = ""color:green"">GREEN</div></div>","66,71,82",1500,test,TRUE,71,500,congruent,green,green,,,,,-1,-1,poldrack-single-stim,131,313050,0.0-131.0,a3dfdb8c-b2df-4194-9823-2e94494f7f77,,500,500,fixation,,<div class = centerbox><div class = fixation>+</div></div>,none,500,test,,,,,,,,,,,728,71,poldrack-categorize,132,315563,0.0-132.0,a3dfdb8c-b2df-4194-9823-2e94494f7f77,,1500,250,stim,,"<div class = centerbox><div class = stroop-stim style = ""color:green"">RED</div></div>","66,71,82",1500,test,TRUE,71,500,incongruent,green,red,,,,,-1,-1,poldrack-single-stim,133,316324,0.0-133.0,a3dfdb8c-b2df-4194-9823-2e94494f7f77,,500,500,fixation,,<div class = centerbox><div class = fixation>+</div></div>,none,500,test,,,,,,,,,,,480,82,poldrack-categorize,134,318837,0.0-134.0,a3dfdb8c-b2df-4194-9823-2e94494f7f77,,1500,250,stim,,"<div class = centerbox><div class = stroop-stim style = ""color:red"">RED</div></div>","66,71,82",1500,test,TRUE,82,500,congruent,red,red,,,,,-1,-1,poldrack-single-stim,135,319598,0.0-135.0,a3dfdb8c-b2df-4194-9823-2e94494f7f77,,500,500,fixation,,<div class = centerbox><div class = fixation>+</div></div>,none,500,test,,,,,,,,,,,526,66,poldrack-categorize,136,322111,0.0-136.0,a3dfdb8c-b2df-4194-9823-2e94494f7f77,,1500,250,stim,,"<div class = centerbox><div class = stroop-stim style = ""color:blue"">BLUE</div></div>","66,71,82",1500,test,TRUE,66,500,congruent,blue,blue,,,,,-1,-1,poldrack-single-stim,137,322871,0.0-137.0,a3dfdb8c-b2df-4194-9823-2e94494f7f77,,500,500,fixation,,<div class = centerbox><div class = fixation>+</div></div>,none,500,test,,,,,,,,,,,853,71,poldrack-categorize,138,325385,0.0-138.0,a3dfdb8c-b2df-4194-9823-2e94494f7f77,,1500,250,stim,,"<div class = centerbox><div class = stroop-stim style = ""color:green"">RED</div></div>","66,71,82",1500,test,TRUE,71,500,incongruent,green,red,,,,,-1,-1,poldrack-single-stim,139,326145,0.0-139.0,a3dfdb8c-b2df-4194-9823-2e94494f7f77,,500,500,fixation,,<div class = centerbox><div class = fixation>+</div></div>,none,500,test,,,,,,,,,,,553,82,poldrack-categorize,140,328659,0.0-140.0,a3dfdb8c-b2df-4194-9823-2e94494f7f77,,1500,250,stim,,"<div class = centerbox><div class = stroop-stim style = ""color:red"">RED</div></div>","66,71,82",1500,test,TRUE,82,500,congruent,red,red,,,,,-1,-1,poldrack-single-stim,141,329419,0.0-141.0,a3dfdb8c-b2df-4194-9823-2e94494f7f77,,500,500,fixation,,<div class = centerbox><div class = fixation>+</div></div>,none,500,test,,,,,,,,,,,808,71,poldrack-categorize,142,331927,0.0-142.0,a3dfdb8c-b2df-4194-9823-2e94494f7f77,,1500,250,stim,,"<div class = centerbox><div class = stroop-stim style = ""color:green"">BLUE</div></div>","66,71,82",1500,test,TRUE,71,500,incongruent,green,blue,,,,,-1,-1,poldrack-single-stim,143,332687,0.0-143.0,a3dfdb8c-b2df-4194-9823-2e94494f7f77,,500,500,fixation,,<div class = centerbox><div class = fixation>+</div></div>,none,500,test,,,,,,,,,,,402,66,poldrack-categorize,144,335200,0.0-144.0,a3dfdb8c-b2df-4194-9823-2e94494f7f77,,1500,250,stim,,"<div class = centerbox><div class = stroop-stim style = ""color:blue"">BLUE</div></div>","66,71,82",1500,test,TRUE,66,500,congruent,blue,blue,,,,,-1,-1,poldrack-single-stim,145,335960,0.0-145.0,a3dfdb8c-b2df-4194-9823-2e94494f7f77,,500,500,fixation,,<div class = centerbox><div class = fixation>+</div></div>,none,500,test,,,,,,,,,,,545,71,poldrack-categorize,146,338474,0.0-146.0,a3dfdb8c-b2df-4194-9823-2e94494f7f77,,1500,250,stim,,"<div class = centerbox><div class = stroop-stim style = ""color:green"">GREEN</div></div>","66,71,82",1500,test,TRUE,71,500,congruent,green,green,,,,,-1,-1,poldrack-single-stim,147,339235,0.0-147.0,a3dfdb8c-b2df-4194-9823-2e94494f7f77,,500,500,fixation,,<div class = centerbox><div class = fixation>+</div></div>,none,500,test,,,,,,,,,,,431,66,poldrack-categorize,148,341748,0.0-148.0,a3dfdb8c-b2df-4194-9823-2e94494f7f77,,1500,250,stim,,"<div class = centerbox><div class = stroop-stim style = ""color:blue"">BLUE</div></div>","66,71,82",1500,test,TRUE,66,500,congruent,blue,blue,,,,,-1,-1,poldrack-single-stim,149,342509,0.0-149.0,a3dfdb8c-b2df-4194-9823-2e94494f7f77,,500,500,fixation,,<div class = centerbox><div class = fixation>+</div></div>,none,500,test,,,,,,,,,,,645,71,poldrack-categorize,150,345022,0.0-150.0,a3dfdb8c-b2df-4194-9823-2e94494f7f77,,1500,250,stim,,"<div class = centerbox><div class = stroop-stim style = ""color:green"">GREEN</div></div>","66,71,82",1500,test,TRUE,71,500,congruent,green,green,,,,,-1,-1,poldrack-single-stim,151,345782,0.0-151.0,a3dfdb8c-b2df-4194-9823-2e94494f7f77,,500,500,fixation,,<div class = centerbox><div class = fixation>+</div></div>,none,500,test,,,,,,,,,,,596,82,poldrack-categorize,152,348296,0.0-152.0,a3dfdb8c-b2df-4194-9823-2e94494f7f77,,1500,250,stim,,"<div class = centerbox><div class = stroop-stim style = ""color:red"">GREEN</div></div>","66,71,82",1500,test,TRUE,82,500,incongruent,red,green,,,,,-1,-1,poldrack-single-stim,153,349051,0.0-153.0,a3dfdb8c-b2df-4194-9823-2e94494f7f77,,500,500,fixation,,<div class = centerbox><div class = fixation>+</div></div>,none,500,test,,,,,,,,,,,606,82,poldrack-categorize,154,351564,0.0-154.0,a3dfdb8c-b2df-4194-9823-2e94494f7f77,,1500,250,stim,,"<div class = centerbox><div class = stroop-stim style = ""color:red"">BLUE</div></div>","66,71,82",1500,test,TRUE,82,500,incongruent,red,blue,,,,,-1,-1,poldrack-single-stim,155,352324,0.0-155.0,a3dfdb8c-b2df-4194-9823-2e94494f7f77,,500,500,fixation,,<div class = centerbox><div class = fixation>+</div></div>,none,500,test,,,,,,,,,,,494,82,poldrack-categorize,156,354837,0.0-156.0,a3dfdb8c-b2df-4194-9823-2e94494f7f77,,1500,250,stim,,"<div class = centerbox><div class = stroop-stim style = ""color:red"">RED</div></div>","66,71,82",1500,test,TRUE,82,500,congruent,red,red,,,,,-1,-1,poldrack-single-stim,157,355598,0.0-157.0,a3dfdb8c-b2df-4194-9823-2e94494f7f77,,500,500,fixation,,<div class = centerbox><div class = fixation>+</div></div>,none,500,test,,,,,,,,,,,531,66,poldrack-categorize,158,358111,0.0-158.0,a3dfdb8c-b2df-4194-9823-2e94494f7f77,,1500,250,stim,,"<div class = centerbox><div class = stroop-stim style = ""color:blue"">BLUE</div></div>","66,71,82",1500,test,TRUE,66,500,congruent,blue,blue,,,,,-1,-1,poldrack-single-stim,159,358872,0.0-159.0,a3dfdb8c-b2df-4194-9823-2e94494f7f77,,500,500,fixation,,<div class = centerbox><div class = fixation>+</div></div>,none,500,test,,,,,,,,,,,761,82,poldrack-categorize,160,361385,0.0-160.0,a3dfdb8c-b2df-4194-9823-2e94494f7f77,,1500,250,stim,,"<div class = centerbox><div class = stroop-stim style = ""color:red"">GREEN</div></div>","66,71,82",1500,test,TRUE,82,500,incongruent,red,green,,,,,-1,-1,poldrack-single-stim,161,362146,0.0-161.0,a3dfdb8c-b2df-4194-9823-2e94494f7f77,,500,500,fixation,,<div class = centerbox><div class = fixation>+</div></div>,none,500,test,,,,,,,,,,,535,66,poldrack-categorize,162,364657,0.0-162.0,a3dfdb8c-b2df-4194-9823-2e94494f7f77,,1500,250,stim,,"<div class = centerbox><div class = stroop-stim style = ""color:blue"">RED</div></div>","66,71,82",1500,test,TRUE,66,500,incongruent,blue,red,,,,,-1,-1,poldrack-single-stim,163,365414,0.0-163.0,a3dfdb8c-b2df-4194-9823-2e94494f7f77,,500,500,fixation,,<div class = centerbox><div class = fixation>+</div></div>,none,500,test,,,,,,,,,,,585,82,poldrack-categorize,164,367927,0.0-164.0,a3dfdb8c-b2df-4194-9823-2e94494f7f77,,1500,250,stim,,"<div class = centerbox><div class = stroop-stim style = ""color:red"">RED</div></div>","66,71,82",1500,test,TRUE,82,500,congruent,red,red,,,,,-1,-1,poldrack-single-stim,165,368687,0.0-165.0,a3dfdb8c-b2df-4194-9823-2e94494f7f77,,500,500,fixation,,<div class = centerbox><div class = fixation>+</div></div>,none,500,test,,,,,,,,,,,1345,66,poldrack-categorize,166,371201,0.0-166.0,a3dfdb8c-b2df-4194-9823-2e94494f7f77,,1500,250,stim,,"<div class = centerbox><div class = stroop-stim style = ""color:blue"">GREEN</div></div>","66,71,82",1500,test,TRUE,66,500,incongruent,blue,green,,,,,-1,-1,poldrack-single-stim,167,371961,0.0-167.0,a3dfdb8c-b2df-4194-9823-2e94494f7f77,,500,500,fixation,,<div class = centerbox><div class = fixation>+</div></div>,none,500,test,,,,,,,,,,,422,71,poldrack-categorize,168,374474,0.0-168.0,a3dfdb8c-b2df-4194-9823-2e94494f7f77,,1500,250,stim,,"<div class = centerbox><div class = stroop-stim style = ""color:green"">RED</div></div>","66,71,82",1500,test,TRUE,71,500,incongruent,green,red,,,,,-1,-1,poldrack-single-stim,169,375235,0.0-169.0,a3dfdb8c-b2df-4194-9823-2e94494f7f77,,500,500,fixation,,<div class = centerbox><div class = fixation>+</div></div>,none,500,test,,,,,,,,,,,556,66,poldrack-categorize,170,377748,0.0-170.0,a3dfdb8c-b2df-4194-9823-2e94494f7f77,,1500,250,stim,,"<div class = centerbox><div class = stroop-stim style = ""color:blue"">BLUE</div></div>","66,71,82",1500,test,TRUE,66,500,congruent,blue,blue,,,,,-1,-1,poldrack-single-stim,171,378509,0.0-171.0,a3dfdb8c-b2df-4194-9823-2e94494f7f77,,500,500,fixation,,<div class = centerbox><div class = fixation>+</div></div>,none,500,test,,,,,,,,,,,882,66,poldrack-categorize,172,381022,0.0-172.0,a3dfdb8c-b2df-4194-9823-2e94494f7f77,,1500,250,stim,,"<div class = centerbox><div class = stroop-stim style = ""color:red"">BLUE</div></div>","66,71,82",1500,test,FALSE,82,500,incongruent,red,blue,,,,,-1,-1,poldrack-single-stim,173,381783,0.0-173.0,a3dfdb8c-b2df-4194-9823-2e94494f7f77,,500,500,fixation,,<div class = centerbox><div class = fixation>+</div></div>,none,500,test,,,,,,,,,,,703,66,poldrack-categorize,174,384296,0.0-174.0,a3dfdb8c-b2df-4194-9823-2e94494f7f77,,1500,250,stim,,"<div class = centerbox><div class = stroop-stim style = ""color:blue"">GREEN</div></div>","66,71,82",1500,test,TRUE,66,500,incongruent,blue,green,,,,,-1,-1,poldrack-single-stim,175,385051,0.0-175.0,a3dfdb8c-b2df-4194-9823-2e94494f7f77,,500,500,fixation,,<div class = centerbox><div class = fixation>+</div></div>,none,500,test,,,,,,,,,,,491,66,poldrack-categorize,176,387564,0.0-176.0,a3dfdb8c-b2df-4194-9823-2e94494f7f77,,1500,250,stim,,"<div class = centerbox><div class = stroop-stim style = ""color:blue"">BLUE</div></div>","66,71,82",1500,test,TRUE,66,500,congruent,blue,blue,,,,,-1,-1,poldrack-single-stim,177,388324,0.0-177.0,a3dfdb8c-b2df-4194-9823-2e94494f7f77,,500,500,fixation,,<div class = centerbox><div class = fixation>+</div></div>,none,500,test,,,,,,,,,,,658,71,poldrack-categorize,178,390838,0.0-178.0,a3dfdb8c-b2df-4194-9823-2e94494f7f77,,1500,250,stim,,"<div class = centerbox><div class = stroop-stim style = ""color:green"">GREEN</div></div>","66,71,82",1500,test,TRUE,71,500,congruent,green,green,,,,,-1,-1,poldrack-single-stim,179,391598,0.0-179.0,a3dfdb8c-b2df-4194-9823-2e94494f7f77,,500,500,fixation,,<div class = centerbox><div class = fixation>+</div></div>,none,500,test,,,,,,,,,,,570,66,poldrack-categorize,180,394108,0.0-180.0,a3dfdb8c-b2df-4194-9823-2e94494f7f77,,1500,250,stim,,"<div class = centerbox><div class = stroop-stim style = ""color:blue"">BLUE</div></div>","66,71,82",1500,test,TRUE,66,500,congruent,blue,blue,,,,,-1,-1,poldrack-single-stim,181,394869,0.0-181.0,a3dfdb8c-b2df-4194-9823-2e94494f7f77,,500,500,fixation,,<div class = centerbox><div class = fixation>+</div></div>,none,500,test,,,,,,,,,,,656,82,poldrack-categorize,182,397379,0.0-182.0,a3dfdb8c-b2df-4194-9823-2e94494f7f77,,1500,250,stim,,"<div class = centerbox><div class = stroop-stim style = ""color:green"">RED</div></div>","66,71,82",1500,test,FALSE,71,500,incongruent,green,red,,,,,-1,-1,poldrack-single-stim,183,398140,0.0-183.0,a3dfdb8c-b2df-4194-9823-2e94494f7f77,,500,500,fixation,,<div class = centerbox><div class = fixation>+</div></div>,none,500,test,,,,,,,,,,,675,66,poldrack-categorize,184,400653,0.0-184.0,a3dfdb8c-b2df-4194-9823-2e94494f7f77,,1500,250,stim,,"<div class = centerbox><div class = stroop-stim style = ""color:blue"">BLUE</div></div>","66,71,82",1500,test,TRUE,66,500,congruent,blue,blue,,,,,-1,-1,poldrack-single-stim,185,401414,0.0-185.0,a3dfdb8c-b2df-4194-9823-2e94494f7f77,,500,500,fixation,,<div class = centerbox><div class = fixation>+</div></div>,none,500,test,,,,,,,,,,,536,82,poldrack-categorize,186,403927,0.0-186.0,a3dfdb8c-b2df-4194-9823-2e94494f7f77,,1500,250,stim,,"<div class = centerbox><div class = stroop-stim style = ""color:red"">RED</div></div>","66,71,82",1500,test,TRUE,82,500,congruent,red,red,,,,,-1,-1,poldrack-single-stim,187,404688,0.0-187.0,a3dfdb8c-b2df-4194-9823-2e94494f7f77,,500,500,fixation,,<div class = centerbox><div class = fixation>+</div></div>,none,500,test,,,,,,,,,,,1063,82,poldrack-categorize,188,407200,0.0-188.0,a3dfdb8c-b2df-4194-9823-2e94494f7f77,,1500,250,stim,,"<div class = centerbox><div class = stroop-stim style = ""color:red"">RED</div></div>","66,71,82",1500,test,TRUE,82,500,congruent,red,red,,,,,-1,-1,poldrack-single-stim,189,407956,0.0-189.0,a3dfdb8c-b2df-4194-9823-2e94494f7f77,,500,500,fixation,,<div class = centerbox><div class = fixation>+</div></div>,none,500,test,,,,,,,,,,,1113,66,poldrack-categorize,190,410467,0.0-190.0,a3dfdb8c-b2df-4194-9823-2e94494f7f77,,1500,250,stim,,"<div class = centerbox><div class = stroop-stim style = ""color:blue"">RED</div></div>","66,71,82",1500,test,TRUE,66,500,incongruent,blue,red,,,,,-1,-1,poldrack-single-stim,191,411224,0.0-191.0,a3dfdb8c-b2df-4194-9823-2e94494f7f77,,500,500,fixation,,<div class = centerbox><div class = fixation>+</div></div>,none,500,test,,,,,,,,,,,525,66,poldrack-categorize,192,413737,0.0-192.0,a3dfdb8c-b2df-4194-9823-2e94494f7f77,,1500,250,stim,,"<div class = centerbox><div class = stroop-stim style = ""color:blue"">BLUE</div></div>","66,71,82",1500,test,TRUE,66,500,congruent,blue,blue,,,,,-1,-1,poldrack-single-stim,193,414492,0.0-193.0,a3dfdb8c-b2df-4194-9823-2e94494f7f77,,500,500,fixation,,<div class = centerbox><div class = fixation>+</div></div>,none,500,test,,,,,,,,,,,657,82,poldrack-categorize,194,417005,0.0-194.0,a3dfdb8c-b2df-4194-9823-2e94494f7f77,,1500,250,stim,,"<div class = centerbox><div class = stroop-stim style = ""color:red"">RED</div></div>","66,71,82",1500,test,TRUE,82,500,congruent,red,red,,,,,-1,-1,poldrack-single-stim,195,417765,0.0-195.0,a3dfdb8c-b2df-4194-9823-2e94494f7f77,,500,500,fixation,,<div class = centerbox><div class = fixation>+</div></div>,none,500,test,,,,,,,,,,,616,82,poldrack-categorize,196,420279,0.0-196.0,a3dfdb8c-b2df-4194-9823-2e94494f7f77,,1500,250,stim,,"<div class = centerbox><div class = stroop-stim style = ""color:red"">RED</div></div>","66,71,82",1500,test,TRUE,82,500,congruent,red,red,,,,,-1,-1,poldrack-single-stim,197,421039,0.0-197.0,a3dfdb8c-b2df-4194-9823-2e94494f7f77,,500,500,fixation,,<div class = centerbox><div class = fixation>+</div></div>,none,500,test,,,,,,,,,,,846,82,poldrack-categorize,198,423553,0.0-198.0,a3dfdb8c-b2df-4194-9823-2e94494f7f77,,1500,250,stim,,"<div class = centerbox><div class = stroop-stim style = ""color:red"">RED</div></div>","66,71,82",1500,test,TRUE,82,500,congruent,red,red,,,,,-1,-1,poldrack-single-stim,199,424313,0.0-199.0,a3dfdb8c-b2df-4194-9823-2e94494f7f77,,500,500,fixation,,<div class = centerbox><div class = fixation>+</div></div>,none,500,test,,,,,,,,,,,755,71,poldrack-categorize,200,426826,0.0-200.0,a3dfdb8c-b2df-4194-9823-2e94494f7f77,,1500,250,stim,,"<div class = centerbox><div class = stroop-stim style = ""color:green"">GREEN</div></div>","66,71,82",1500,test,TRUE,71,500,congruent,green,green,,,,,-1,-1,poldrack-single-stim,201,427587,0.0-201.0,a3dfdb8c-b2df-4194-9823-2e94494f7f77,,500,500,fixation,,<div class = centerbox><div class = fixation>+</div></div>,none,500,test,,,,,,,,,,,712,66,poldrack-categorize,202,430100,0.0-202.0,a3dfdb8c-b2df-4194-9823-2e94494f7f77,,1500,250,stim,,"<div class = centerbox><div class = stroop-stim style = ""color:blue"">GREEN</div></div>","66,71,82",1500,test,TRUE,66,500,incongruent,blue,green,,,,,-1,-1,poldrack-single-stim,203,430861,0.0-203.0,a3dfdb8c-b2df-4194-9823-2e94494f7f77,,500,500,fixation,,<div class = centerbox><div class = fixation>+</div></div>,none,500,test,,,,,,,,,,,696,71,poldrack-categorize,204,433368,0.0-204.0,a3dfdb8c-b2df-4194-9823-2e94494f7f77,,1500,250,stim,,"<div class = centerbox><div class = stroop-stim style = ""color:green"">GREEN</div></div>","66,71,82",1500,test,TRUE,71,500,congruent,green,green,,,,,-1,-1,poldrack-single-stim,205,434129,0.0-205.0,a3dfdb8c-b2df-4194-9823-2e94494f7f77,,500,500,fixation,,<div class = centerbox><div class = fixation>+</div></div>,none,500,test,,,,,,,,,,,897,82,poldrack-categorize,206,436642,0.0-206.0,a3dfdb8c-b2df-4194-9823-2e94494f7f77,,1500,250,stim,,"<div class = centerbox><div class = stroop-stim style = ""color:red"">GREEN</div></div>","66,71,82",1500,test,TRUE,82,500,incongruent,red,green,,,,,-1,-1,poldrack-single-stim,207,437402,0.0-207.0,a3dfdb8c-b2df-4194-9823-2e94494f7f77,,500,500,fixation,,<div class = centerbox><div class = fixation>+</div></div>,none,500,test,,,,,,,,,,,656,71,poldrack-categorize,208,439916,0.0-208.0,a3dfdb8c-b2df-4194-9823-2e94494f7f77,,1500,250,stim,,"<div class = centerbox><div class = stroop-stim style = ""color:green"">GREEN</div></div>","66,71,82",1500,test,TRUE,71,500,congruent,green,green,,,,,-1,-1,poldrack-single-stim,209,440676,0.0-209.0,a3dfdb8c-b2df-4194-9823-2e94494f7f77,,500,500,fixation,,<div class = centerbox><div class = fixation>+</div></div>,none,500,test,,,,,,,,,,,582,71,poldrack-categorize,210,443190,0.0-210.0,a3dfdb8c-b2df-4194-9823-2e94494f7f77,,1500,250,stim,,"<div class = centerbox><div class = stroop-stim style = ""color:green"">GREEN</div></div>","66,71,82",1500,test,TRUE,71,500,congruent,green,green,,,,,-1,-1,poldrack-single-stim,211,443950,0.0-211.0,a3dfdb8c-b2df-4194-9823-2e94494f7f77,,500,500,fixation,,<div class = centerbox><div class = fixation>+</div></div>,none,500,test,,,,,,,,,,,558,66,poldrack-categorize,212,446463,0.0-212.0,a3dfdb8c-b2df-4194-9823-2e94494f7f77,,1500,250,stim,,"<div class = centerbox><div class = stroop-stim style = ""color:blue"">GREEN</div></div>","66,71,82",1500,test,TRUE,66,500,incongruent,blue,green,,,,,-1,-1,poldrack-single-stim,213,447224,0.0-213.0,a3dfdb8c-b2df-4194-9823-2e94494f7f77,,500,500,fixation,,<div class = centerbox><div class = fixation>+</div></div>,none,500,test,,,,,,,,,,,618,82,poldrack-categorize,214,449737,0.0-214.0,a3dfdb8c-b2df-4194-9823-2e94494f7f77,,1500,250,stim,,"<div class = centerbox><div class = stroop-stim style = ""color:red"">RED</div></div>","66,71,82",1500,test,TRUE,82,500,congruent,red,red,,,,,-1,-1,poldrack-single-stim,215,450498,0.0-215.0,a3dfdb8c-b2df-4194-9823-2e94494f7f77,,500,500,fixation,,<div class = centerbox><div class = fixation>+</div></div>,none,500,test,,,,,,,,,,,865,82,poldrack-categorize,216,453011,0.0-216.0,a3dfdb8c-b2df-4194-9823-2e94494f7f77,,1500,250,stim,,"<div class = centerbox><div class = stroop-stim style = ""color:red"">BLUE</div></div>","66,71,82",1500,test,TRUE,82,500,incongruent,red,blue,,,,,-1,-1,poldrack-single-stim,217,453772,0.0-217.0,a3dfdb8c-b2df-4194-9823-2e94494f7f77,,500,500,fixation,,<div class = centerbox><div class = fixation>+</div></div>,none,500,test,,,,,,,,,,,535,66,poldrack-categorize,218,456285,0.0-218.0,a3dfdb8c-b2df-4194-9823-2e94494f7f77,,1500,250,stim,,"<div class = centerbox><div class = stroop-stim style = ""color:blue"">GREEN</div></div>","66,71,82",1500,test,TRUE,66,500,incongruent,blue,green,,,,,-1,-1,poldrack-single-stim,219,457045,0.0-219.0,a3dfdb8c-b2df-4194-9823-2e94494f7f77,,500,500,fixation,,<div class = centerbox><div class = fixation>+</div></div>,none,500,test,,,,,,,,,,,1118,71,poldrack-categorize,220,459553,0.0-220.0,a3dfdb8c-b2df-4194-9823-2e94494f7f77,,1500,250,stim,,"<div class = centerbox><div class = stroop-stim style = ""color:green"">RED</div></div>","66,71,82",1500,test,TRUE,71,500,incongruent,green,red,,,,,-1,-1,poldrack-single-stim,221,460313,0.0-221.0,a3dfdb8c-b2df-4194-9823-2e94494f7f77,,500,500,fixation,,<div class = centerbox><div class = fixation>+</div></div>,none,500,test,,,,,,,,,,,919,71,poldrack-categorize,222,462827,0.0-222.0,a3dfdb8c-b2df-4194-9823-2e94494f7f77,,1500,250,stim,,"<div class = centerbox><div class = stroop-stim style = ""color:green"">BLUE</div></div>","66,71,82",1500,test,TRUE,71,500,incongruent,green,blue,,,,,-1,-1,poldrack-single-stim,223,463584,0.0-223.0,a3dfdb8c-b2df-4194-9823-2e94494f7f77,,500,500,fixation,,<div class = centerbox><div class = fixation>+</div></div>,none,500,test,,,,,,,,,,,547,82,poldrack-categorize,224,466095,0.0-224.0,a3dfdb8c-b2df-4194-9823-2e94494f7f77,,1500,250,stim,,"<div class = centerbox><div class = stroop-stim style = ""color:red"">RED</div></div>","66,71,82",1500,test,TRUE,82,500,congruent,red,red,,,,,-1,-1,poldrack-single-stim,225,466855,0.0-225.0,a3dfdb8c-b2df-4194-9823-2e94494f7f77,,500,500,fixation,,<div class = centerbox><div class = fixation>+</div></div>,none,500,test,,,,,,,,,,,874,82,poldrack-categorize,226,469363,0.0-226.0,a3dfdb8c-b2df-4194-9823-2e94494f7f77,,1500,250,stim,,"<div class = centerbox><div class = stroop-stim style = ""color:red"">BLUE</div></div>","66,71,82",1500,test,TRUE,82,500,incongruent,red,blue,,,,,-1,-1,poldrack-single-stim,227,470123,0.0-227.0,a3dfdb8c-b2df-4194-9823-2e94494f7f77,,500,500,fixation,,<div class = centerbox><div class = fixation>+</div></div>,none,500,test,,,,,,,,,,,813,82,poldrack-categorize,228,472636,0.0-228.0,a3dfdb8c-b2df-4194-9823-2e94494f7f77,,1500,250,stim,,"<div class = centerbox><div class = stroop-stim style = ""color:red"">GREEN</div></div>","66,71,82",1500,test,TRUE,82,500,incongruent,red,green,,,,,-1,-1,poldrack-single-stim,229,473397,0.0-229.0,a3dfdb8c-b2df-4194-9823-2e94494f7f77,,500,500,fixation,,<div class = centerbox><div class = fixation>+</div></div>,none,500,test,,,,,,,,,,,597,71,poldrack-categorize,230,475910,0.0-230.0,a3dfdb8c-b2df-4194-9823-2e94494f7f77,,1500,250,stim,,"<div class = centerbox><div class = stroop-stim style = ""color:green"">GREEN</div></div>","66,71,82",1500,test,TRUE,71,500,congruent,green,green,,,,,-1,-1,poldrack-single-stim,231,476671,0.0-231.0,a3dfdb8c-b2df-4194-9823-2e94494f7f77,,500,500,fixation,,<div class = centerbox><div class = fixation>+</div></div>,none,500,test,,,,,,,,,,,731,66,poldrack-categorize,232,479184,0.0-232.0,a3dfdb8c-b2df-4194-9823-2e94494f7f77,,1500,250,stim,,"<div class = centerbox><div class = stroop-stim style = ""color:blue"">RED</div></div>","66,71,82",1500,test,TRUE,66,500,incongruent,blue,red,,,,,-1,-1,poldrack-single-stim,233,479945,0.0-233.0,a3dfdb8c-b2df-4194-9823-2e94494f7f77,,500,500,fixation,,<div class = centerbox><div class = fixation>+</div></div>,none,500,test,,,,,,,,,,,647,71,poldrack-categorize,234,482458,0.0-234.0,a3dfdb8c-b2df-4194-9823-2e94494f7f77,,1500,250,stim,,"<div class = centerbox><div class = stroop-stim style = ""color:green"">GREEN</div></div>","66,71,82",1500,test,TRUE,71,500,congruent,green,green,,,,,-1,-1,poldrack-single-stim,235,483218,0.0-235.0,a3dfdb8c-b2df-4194-9823-2e94494f7f77,,500,500,fixation,,<div class = centerbox><div class = fixation>+</div></div>,none,500,test,,,,,,,,,,,465,71,poldrack-categorize,236,485726,0.0-236.0,a3dfdb8c-b2df-4194-9823-2e94494f7f77,,1500,250,stim,,"<div class = centerbox><div class = stroop-stim style = ""color:green"">GREEN</div></div>","66,71,82",1500,test,TRUE,71,500,congruent,green,green,,,,,-1,-1,poldrack-single-stim,237,486481,0.0-237.0,a3dfdb8c-b2df-4194-9823-2e94494f7f77,,500,500,fixation,,<div class = centerbox><div class = fixation>+</div></div>,none,500,test,,,,,,,,,,,502,71,poldrack-categorize,238,488994,0.0-238.0,a3dfdb8c-b2df-4194-9823-2e94494f7f77,,1500,250,stim,,"<div class = centerbox><div class = stroop-stim style = ""color:green"">GREEN</div></div>","66,71,82",1500,test,TRUE,71,500,congruent,green,green,,,,,-1,-1,poldrack-single-stim,239,489754,0.0-239.0,a3dfdb8c-b2df-4194-9823-2e94494f7f77,,500,500,fixation,,<div class = centerbox><div class = fixation>+</div></div>,none,500,test,,,,,,,,,,,399,71,poldrack-categorize,240,492264,0.0-240.0,a3dfdb8c-b2df-4194-9823-2e94494f7f77,,1500,250,stim,,"<div class = centerbox><div class = stroop-stim style = ""color:green"">RED</div></div>","66,71,82",1500,test,TRUE,71,500,incongruent,green,red,,,,,-1,-1,poldrack-single-stim,241,493022,0.0-241.0,a3dfdb8c-b2df-4194-9823-2e94494f7f77,,500,500,fixation,,<div class = centerbox><div class = fixation>+</div></div>,none,500,test,,,,,,,,,,,472,71,poldrack-categorize,242,495536,0.0-242.0,a3dfdb8c-b2df-4194-9823-2e94494f7f77,,1500,250,stim,,"<div class = centerbox><div class = stroop-stim style = ""color:green"">GREEN</div></div>","66,71,82",1500,test,TRUE,71,500,congruent,green,green,,,,,-1,-1,poldrack-single-stim,243,496296,0.0-243.0,a3dfdb8c-b2df-4194-9823-2e94494f7f77,,500,500,fixation,,<div class = centerbox><div class = fixation>+</div></div>,none,500,test,,,,,,,,,,,633,71,poldrack-categorize,244,498809,0.0-244.0,a3dfdb8c-b2df-4194-9823-2e94494f7f77,,1500,250,stim,,"<div class = centerbox><div class = stroop-stim style = ""color:green"">BLUE</div></div>","66,71,82",1500,test,TRUE,71,500,incongruent,green,blue,,,,,40772,,survey-text,245,539842,0.0-246.0,a3dfdb8c-b2df-4194-9823-2e94494f7f77,,,,post task questions,,,,,,,,,,,,"{""Q0"":""Judge between the color presented in word form and the actual color shown "",""Q1"":""N/A""}",,,,2151,13,poldrack-text,246,542997,0.0-247.0,a3dfdb8c-b2df-4194-9823-2e94494f7f77,<div class = centerbox><p class = center-block-text>Thanks for completing this task!</p><p class = center-block-text>Press <strong>enter</strong> to continue.</p></div>,2151,0,end,,,,,,,,,,,,,stroop,TRUE,,2946,13,poldrack-text,247,545981,0.0-248.0-0.0,a3dfdb8c-b2df-4194-9823-2e94494f7f77,<div class = centerbox><p class = center-block-text>Done with instructions. Press <strong>enter</strong> to continue.</p></div>,2946,0,instruction,,,,,,,,,,,,,,,,