rt,key_press,trial_type,trial_index,time_elapsed,internal_node_id,subject,text,block_duration,timing_post_trial,trial_id,view_history,stimulus,possible_responses,stim_duration,exp_stage,correct,correct_response,feedback_duration,condition,stim_color,stim_word,responses,exp_id,credit_var,stim_place,stim_id12005,13,text,0,12006,0.0-0.0,b113efca-e0d2-4438-a759-0f5291a47594,,,,,,,,,,,,,,,,,,,,2351,13,poldrack-text,1,15365,0.0-1.0-0.0,b113efca-e0d2-4438-a759-0f5291a47594,<div class = centerbox><p class = center-block-text>Welcome to the experiment. This experiment will take about 8 minutes. Press <strong>enter</strong> to begin.</p></div>,2351,0,instruction,,,,,,,,,,,,,,,,23896,,poldrack-instructions,2,39262,0.0-1.0-1.0,b113efca-e0d2-4438-a759-0f5291a47594,,,,instruction,"[{""page_index"":0,""viewing_time"":23895}]",,,,,,,,,,,,,,,2920,13,poldrack-text,3,43187,0.0-2.0,b113efca-e0d2-4438-a759-0f5291a47594,"<div class = centerbox><p class = block-text>We will start with a few practice trials. Remember, press the key corresponding to the <strong>ink</strong> color of the word: ""r"" for words colored red, ""b"" for words colored blue, and ""g"" for words colored green.</p><p class = block-text>Press <strong>enter</strong> to begin practice.</p></div>",2920,1000,practice_intro,,,,,,,,,,,,,,,,-1,-1,poldrack-single-stim,4,44696,0.0-3.0,b113efca-e0d2-4438-a759-0f5291a47594,,500,500,fixation,,<div class = centerbox><div class = fixation>+</div></div>,none,500,practice,,,,,,,,,,,1411,66,poldrack-categorize,5,47207,0.0-4.0,b113efca-e0d2-4438-a759-0f5291a47594,,1500,250,stim,,"<div class = centerbox><div class = stroop-stim style = ""color:blue"">RED</div></div>","66,71,82",1500,practice,TRUE,66,500,incongruent,blue,red,,,,,-1,-1,poldrack-single-stim,6,47969,0.0-5.0,b113efca-e0d2-4438-a759-0f5291a47594,,500,500,fixation,,<div class = centerbox><div class = fixation>+</div></div>,none,500,practice,,,,,,,,,,,424,66,poldrack-categorize,7,50482,0.0-6.0,b113efca-e0d2-4438-a759-0f5291a47594,,1500,250,stim,,"<div class = centerbox><div class = stroop-stim style = ""color:blue"">BLUE</div></div>","66,71,82",1500,practice,TRUE,66,500,congruent,blue,blue,,,,,-1,-1,poldrack-single-stim,8,51241,0.0-7.0,b113efca-e0d2-4438-a759-0f5291a47594,,500,500,fixation,,<div class = centerbox><div class = fixation>+</div></div>,none,500,practice,,,,,,,,,,,673,71,poldrack-categorize,9,53756,0.0-8.0,b113efca-e0d2-4438-a759-0f5291a47594,,1500,250,stim,,"<div class = centerbox><div class = stroop-stim style = ""color:green"">GREEN</div></div>","66,71,82",1500,practice,TRUE,71,500,congruent,green,green,,,,,-1,-1,poldrack-single-stim,10,54517,0.0-9.0,b113efca-e0d2-4438-a759-0f5291a47594,,500,500,fixation,,<div class = centerbox><div class = fixation>+</div></div>,none,500,practice,,,,,,,,,,,492,71,poldrack-categorize,11,57030,0.0-10.0,b113efca-e0d2-4438-a759-0f5291a47594,,1500,250,stim,,"<div class = centerbox><div class = stroop-stim style = ""color:green"">RED</div></div>","66,71,82",1500,practice,TRUE,71,500,incongruent,green,red,,,,,-1,-1,poldrack-single-stim,12,57790,0.0-11.0,b113efca-e0d2-4438-a759-0f5291a47594,,500,500,fixation,,<div class = centerbox><div class = fixation>+</div></div>,none,500,practice,,,,,,,,,,,755,82,poldrack-categorize,13,60299,0.0-12.0,b113efca-e0d2-4438-a759-0f5291a47594,,1500,250,stim,,"<div class = centerbox><div class = stroop-stim style = ""color:red"">RED</div></div>","66,71,82",1500,practice,TRUE,82,500,congruent,red,red,,,,,-1,-1,poldrack-single-stim,14,61058,0.0-13.0,b113efca-e0d2-4438-a759-0f5291a47594,,500,500,fixation,,<div class = centerbox><div class = fixation>+</div></div>,none,500,practice,,,,,,,,,,,942,71,poldrack-categorize,15,63571,0.0-14.0,b113efca-e0d2-4438-a759-0f5291a47594,,1500,250,stim,,"<div class = centerbox><div class = stroop-stim style = ""color:green"">BLUE</div></div>","66,71,82",1500,practice,TRUE,71,500,incongruent,green,blue,,,,,-1,-1,poldrack-single-stim,16,64326,0.0-15.0,b113efca-e0d2-4438-a759-0f5291a47594,,500,500,fixation,,<div class = centerbox><div class = fixation>+</div></div>,none,500,practice,,,,,,,,,,,698,82,poldrack-categorize,17,66839,0.0-16.0,b113efca-e0d2-4438-a759-0f5291a47594,,1500,250,stim,,"<div class = centerbox><div class = stroop-stim style = ""color:red"">RED</div></div>","66,71,82",1500,practice,TRUE,82,500,congruent,red,red,,,,,-1,-1,poldrack-single-stim,18,67599,0.0-17.0,b113efca-e0d2-4438-a759-0f5291a47594,,500,500,fixation,,<div class = centerbox><div class = fixation>+</div></div>,none,500,practice,,,,,,,,,,,1000,66,poldrack-categorize,19,70113,0.0-18.0,b113efca-e0d2-4438-a759-0f5291a47594,,1500,250,stim,,"<div class = centerbox><div class = stroop-stim style = ""color:blue"">GREEN</div></div>","66,71,82",1500,practice,TRUE,66,500,incongruent,blue,green,,,,,-1,-1,poldrack-single-stim,20,70873,0.0-19.0,b113efca-e0d2-4438-a759-0f5291a47594,,500,500,fixation,,<div class = centerbox><div class = fixation>+</div></div>,none,500,practice,,,,,,,,,,,-1,-1,poldrack-categorize,21,73387,0.0-20.0,b113efca-e0d2-4438-a759-0f5291a47594,,1500,250,stim,,"<div class = centerbox><div class = stroop-stim style = ""color:blue"">RED</div></div>","66,71,82",1500,practice,FALSE,66,500,incongruent,blue,red,,,,,-1,-1,poldrack-single-stim,22,74142,0.0-21.0,b113efca-e0d2-4438-a759-0f5291a47594,,500,500,fixation,,<div class = centerbox><div class = fixation>+</div></div>,none,500,practice,,,,,,,,,,,762,82,poldrack-categorize,23,76655,0.0-22.0,b113efca-e0d2-4438-a759-0f5291a47594,,1500,250,stim,,"<div class = centerbox><div class = stroop-stim style = ""color:red"">GREEN</div></div>","66,71,82",1500,practice,TRUE,82,500,incongruent,red,green,,,,,-1,-1,poldrack-single-stim,24,77416,0.0-23.0,b113efca-e0d2-4438-a759-0f5291a47594,,500,500,fixation,,<div class = centerbox><div class = fixation>+</div></div>,none,500,practice,,,,,,,,,,,825,71,poldrack-categorize,25,79929,0.0-24.0,b113efca-e0d2-4438-a759-0f5291a47594,,1500,250,stim,,"<div class = centerbox><div class = stroop-stim style = ""color:green"">RED</div></div>","66,71,82",1500,practice,TRUE,71,500,incongruent,green,red,,,,,-1,-1,poldrack-single-stim,26,80689,0.0-25.0,b113efca-e0d2-4438-a759-0f5291a47594,,500,500,fixation,,<div class = centerbox><div class = fixation>+</div></div>,none,500,practice,,,,,,,,,,,798,82,poldrack-categorize,27,83203,0.0-26.0,b113efca-e0d2-4438-a759-0f5291a47594,,1500,250,stim,,"<div class = centerbox><div class = stroop-stim style = ""color:red"">BLUE</div></div>","66,71,82",1500,practice,TRUE,82,500,incongruent,red,blue,,,,,-1,-1,poldrack-single-stim,28,83963,0.0-27.0,b113efca-e0d2-4438-a759-0f5291a47594,,500,500,fixation,,<div class = centerbox><div class = fixation>+</div></div>,none,500,practice,,,,,,,,,,,691,71,poldrack-categorize,29,86475,0.0-28.0,b113efca-e0d2-4438-a759-0f5291a47594,,1500,250,stim,,"<div class = centerbox><div class = stroop-stim style = ""color:green"">GREEN</div></div>","66,71,82",1500,practice,TRUE,71,500,congruent,green,green,,,,,-1,-1,poldrack-single-stim,30,87231,0.0-29.0,b113efca-e0d2-4438-a759-0f5291a47594,,500,500,fixation,,<div class = centerbox><div class = fixation>+</div></div>,none,500,practice,,,,,,,,,,,720,82,poldrack-categorize,31,89744,0.0-30.0,b113efca-e0d2-4438-a759-0f5291a47594,,1500,250,stim,,"<div class = centerbox><div class = stroop-stim style = ""color:red"">GREEN</div></div>","66,71,82",1500,practice,TRUE,82,500,incongruent,red,green,,,,,-1,-1,poldrack-single-stim,32,90505,0.0-31.0,b113efca-e0d2-4438-a759-0f5291a47594,,500,500,fixation,,<div class = centerbox><div class = fixation>+</div></div>,none,500,practice,,,,,,,,,,,653,82,poldrack-categorize,33,93018,0.0-32.0,b113efca-e0d2-4438-a759-0f5291a47594,,1500,250,stim,,"<div class = centerbox><div class = stroop-stim style = ""color:red"">BLUE</div></div>","66,71,82",1500,practice,TRUE,82,500,incongruent,red,blue,,,,,-1,-1,poldrack-single-stim,34,93779,0.0-33.0,b113efca-e0d2-4438-a759-0f5291a47594,,500,500,fixation,,<div class = centerbox><div class = fixation>+</div></div>,none,500,practice,,,,,,,,,,,939,66,poldrack-categorize,35,96292,0.0-34.0,b113efca-e0d2-4438-a759-0f5291a47594,,1500,250,stim,,"<div class = centerbox><div class = stroop-stim style = ""color:blue"">BLUE</div></div>","66,71,82",1500,practice,TRUE,66,500,congruent,blue,blue,,,,,-1,-1,poldrack-single-stim,36,97053,0.0-35.0,b113efca-e0d2-4438-a759-0f5291a47594,,500,500,fixation,,<div class = centerbox><div class = fixation>+</div></div>,none,500,practice,,,,,,,,,,,761,82,poldrack-categorize,37,99566,0.0-36.0,b113efca-e0d2-4438-a759-0f5291a47594,,1500,250,stim,,"<div class = centerbox><div class = stroop-stim style = ""color:red"">RED</div></div>","66,71,82",1500,practice,TRUE,82,500,congruent,red,red,,,,,-1,-1,poldrack-single-stim,38,100327,0.0-37.0,b113efca-e0d2-4438-a759-0f5291a47594,,500,500,fixation,,<div class = centerbox><div class = fixation>+</div></div>,none,500,practice,,,,,,,,,,,888,66,poldrack-categorize,39,102840,0.0-38.0,b113efca-e0d2-4438-a759-0f5291a47594,,1500,250,stim,,"<div class = centerbox><div class = stroop-stim style = ""color:blue"">BLUE</div></div>","66,71,82",1500,practice,TRUE,66,500,congruent,blue,blue,,,,,-1,-1,poldrack-single-stim,40,103595,0.0-39.0,b113efca-e0d2-4438-a759-0f5291a47594,,500,500,fixation,,<div class = centerbox><div class = fixation>+</div></div>,none,500,practice,,,,,,,,,,,751,71,poldrack-categorize,41,106102,0.0-40.0,b113efca-e0d2-4438-a759-0f5291a47594,,1500,250,stim,,"<div class = centerbox><div class = stroop-stim style = ""color:green"">BLUE</div></div>","66,71,82",1500,practice,TRUE,71,500,incongruent,green,blue,,,,,-1,-1,poldrack-single-stim,42,106863,0.0-41.0,b113efca-e0d2-4438-a759-0f5291a47594,,500,500,fixation,,<div class = centerbox><div class = fixation>+</div></div>,none,500,practice,,,,,,,,,,,823,66,poldrack-categorize,43,109375,0.0-42.0,b113efca-e0d2-4438-a759-0f5291a47594,,1500,250,stim,,"<div class = centerbox><div class = stroop-stim style = ""color:blue"">BLUE</div></div>","66,71,82",1500,practice,TRUE,66,500,congruent,blue,blue,,,,,-1,-1,poldrack-single-stim,44,110136,0.0-43.0,b113efca-e0d2-4438-a759-0f5291a47594,,500,500,fixation,,<div class = centerbox><div class = fixation>+</div></div>,none,500,practice,,,,,,,,,,,637,71,poldrack-categorize,45,112649,0.0-44.0,b113efca-e0d2-4438-a759-0f5291a47594,,1500,250,stim,,"<div class = centerbox><div class = stroop-stim style = ""color:green"">GREEN</div></div>","66,71,82",1500,practice,TRUE,71,500,congruent,green,green,,,,,-1,-1,poldrack-single-stim,46,113410,0.0-45.0,b113efca-e0d2-4438-a759-0f5291a47594,,500,500,fixation,,<div class = centerbox><div class = fixation>+</div></div>,none,500,practice,,,,,,,,,,,683,71,poldrack-categorize,47,115923,0.0-46.0,b113efca-e0d2-4438-a759-0f5291a47594,,1500,250,stim,,"<div class = centerbox><div class = stroop-stim style = ""color:green"">GREEN</div></div>","66,71,82",1500,practice,TRUE,71,500,congruent,green,green,,,,,-1,-1,poldrack-single-stim,48,116684,0.0-47.0,b113efca-e0d2-4438-a759-0f5291a47594,,500,500,fixation,,<div class = centerbox><div class = fixation>+</div></div>,none,500,practice,,,,,,,,,,,849,82,poldrack-categorize,49,119197,0.0-48.0,b113efca-e0d2-4438-a759-0f5291a47594,,1500,250,stim,,"<div class = centerbox><div class = stroop-stim style = ""color:red"">RED</div></div>","66,71,82",1500,practice,TRUE,82,500,congruent,red,red,,,,,-1,-1,poldrack-single-stim,50,119958,0.0-49.0,b113efca-e0d2-4438-a759-0f5291a47594,,500,500,fixation,,<div class = centerbox><div class = fixation>+</div></div>,none,500,practice,,,,,,,,,,,1319,66,poldrack-categorize,51,122468,0.0-50.0,b113efca-e0d2-4438-a759-0f5291a47594,,1500,250,stim,,"<div class = centerbox><div class = stroop-stim style = ""color:blue"">GREEN</div></div>","66,71,82",1500,practice,TRUE,66,500,incongruent,blue,green,,,,,2733,13,poldrack-text,52,125454,0.0-52.0,b113efca-e0d2-4438-a759-0f5291a47594,<div class = centerbox><p class = center-block-text>We will now start the test. Respond exactly like you did during practice.</p><p class = center-block-text>Press <strong>enter</strong> to begin the test.</p></div>,2733,1000,test_intro,,,,,,,,,,,,,,,,-1,-1,poldrack-single-stim,53,126964,0.0-53.0,b113efca-e0d2-4438-a759-0f5291a47594,,500,500,fixation,,<div class = centerbox><div class = fixation>+</div></div>,none,500,test,,,,,,,,,,,788,71,poldrack-categorize,54,129470,0.0-54.0,b113efca-e0d2-4438-a759-0f5291a47594,,1500,250,stim,,"<div class = centerbox><div class = stroop-stim style = ""color:green"">BLUE</div></div>","66,71,82",1500,test,TRUE,71,500,incongruent,green,blue,,,,,-1,-1,poldrack-single-stim,55,130223,0.0-55.0,b113efca-e0d2-4438-a759-0f5291a47594,,500,500,fixation,,<div class = centerbox><div class = fixation>+</div></div>,none,500,test,,,,,,,,,,,564,82,poldrack-categorize,56,132739,0.0-56.0,b113efca-e0d2-4438-a759-0f5291a47594,,1500,250,stim,,"<div class = centerbox><div class = stroop-stim style = ""color:red"">GREEN</div></div>","66,71,82",1500,test,TRUE,82,500,incongruent,red,green,,,,,-1,-1,poldrack-single-stim,57,133498,0.0-57.0,b113efca-e0d2-4438-a759-0f5291a47594,,500,500,fixation,,<div class = centerbox><div class = fixation>+</div></div>,none,500,test,,,,,,,,,,,588,71,poldrack-categorize,58,136008,0.0-58.0,b113efca-e0d2-4438-a759-0f5291a47594,,1500,250,stim,,"<div class = centerbox><div class = stroop-stim style = ""color:green"">GREEN</div></div>","66,71,82",1500,test,TRUE,71,500,congruent,green,green,,,,,-1,-1,poldrack-single-stim,59,136768,0.0-59.0,b113efca-e0d2-4438-a759-0f5291a47594,,500,500,fixation,,<div class = centerbox><div class = fixation>+</div></div>,none,500,test,,,,,,,,,,,621,82,poldrack-categorize,60,139281,0.0-60.0,b113efca-e0d2-4438-a759-0f5291a47594,,1500,250,stim,,"<div class = centerbox><div class = stroop-stim style = ""color:red"">BLUE</div></div>","66,71,82",1500,test,TRUE,82,500,incongruent,red,blue,,,,,-1,-1,poldrack-single-stim,61,140042,0.0-61.0,b113efca-e0d2-4438-a759-0f5291a47594,,500,500,fixation,,<div class = centerbox><div class = fixation>+</div></div>,none,500,test,,,,,,,,,,,857,66,poldrack-categorize,62,142554,0.0-62.0,b113efca-e0d2-4438-a759-0f5291a47594,,1500,250,stim,,"<div class = centerbox><div class = stroop-stim style = ""color:blue"">RED</div></div>","66,71,82",1500,test,TRUE,66,500,incongruent,blue,red,,,,,-1,-1,poldrack-single-stim,63,143310,0.0-63.0,b113efca-e0d2-4438-a759-0f5291a47594,,500,500,fixation,,<div class = centerbox><div class = fixation>+</div></div>,none,500,test,,,,,,,,,,,621,71,poldrack-categorize,64,145823,0.0-64.0,b113efca-e0d2-4438-a759-0f5291a47594,,1500,250,stim,,"<div class = centerbox><div class = stroop-stim style = ""color:green"">GREEN</div></div>","66,71,82",1500,test,TRUE,71,500,congruent,green,green,,,,,-1,-1,poldrack-single-stim,65,146584,0.0-65.0,b113efca-e0d2-4438-a759-0f5291a47594,,500,500,fixation,,<div class = centerbox><div class = fixation>+</div></div>,none,500,test,,,,,,,,,,,804,66,poldrack-categorize,66,149097,0.0-66.0,b113efca-e0d2-4438-a759-0f5291a47594,,1500,250,stim,,"<div class = centerbox><div class = stroop-stim style = ""color:blue"">RED</div></div>","66,71,82",1500,test,TRUE,66,500,incongruent,blue,red,,,,,-1,-1,poldrack-single-stim,67,149858,0.0-67.0,b113efca-e0d2-4438-a759-0f5291a47594,,500,500,fixation,,<div class = centerbox><div class = fixation>+</div></div>,none,500,test,,,,,,,,,,,642,82,poldrack-categorize,68,152371,0.0-68.0,b113efca-e0d2-4438-a759-0f5291a47594,,1500,250,stim,,"<div class = centerbox><div class = stroop-stim style = ""color:red"">GREEN</div></div>","66,71,82",1500,test,TRUE,82,500,incongruent,red,green,,,,,-1,-1,poldrack-single-stim,69,153131,0.0-69.0,b113efca-e0d2-4438-a759-0f5291a47594,,500,500,fixation,,<div class = centerbox><div class = fixation>+</div></div>,none,500,test,,,,,,,,,,,488,71,poldrack-categorize,70,155645,0.0-70.0,b113efca-e0d2-4438-a759-0f5291a47594,,1500,250,stim,,"<div class = centerbox><div class = stroop-stim style = ""color:green"">BLUE</div></div>","66,71,82",1500,test,TRUE,71,500,incongruent,green,blue,,,,,-1,-1,poldrack-single-stim,71,156401,0.0-71.0,b113efca-e0d2-4438-a759-0f5291a47594,,500,500,fixation,,<div class = centerbox><div class = fixation>+</div></div>,none,500,test,,,,,,,,,,,649,66,poldrack-categorize,72,158913,0.0-72.0,b113efca-e0d2-4438-a759-0f5291a47594,,1500,250,stim,,"<div class = centerbox><div class = stroop-stim style = ""color:blue"">BLUE</div></div>","66,71,82",1500,test,TRUE,66,500,congruent,blue,blue,,,,,-1,-1,poldrack-single-stim,73,159673,0.0-73.0,b113efca-e0d2-4438-a759-0f5291a47594,,500,500,fixation,,<div class = centerbox><div class = fixation>+</div></div>,none,500,test,,,,,,,,,,,537,66,poldrack-categorize,74,162181,0.0-74.0,b113efca-e0d2-4438-a759-0f5291a47594,,1500,250,stim,,"<div class = centerbox><div class = stroop-stim style = ""color:blue"">BLUE</div></div>","66,71,82",1500,test,TRUE,66,500,congruent,blue,blue,,,,,-1,-1,poldrack-single-stim,75,162941,0.0-75.0,b113efca-e0d2-4438-a759-0f5291a47594,,500,500,fixation,,<div class = centerbox><div class = fixation>+</div></div>,none,500,test,,,,,,,,,,,381,82,poldrack-categorize,76,165454,0.0-76.0,b113efca-e0d2-4438-a759-0f5291a47594,,1500,250,stim,,"<div class = centerbox><div class = stroop-stim style = ""color:red"">RED</div></div>","66,71,82",1500,test,TRUE,82,500,congruent,red,red,,,,,-1,-1,poldrack-single-stim,77,166215,0.0-77.0,b113efca-e0d2-4438-a759-0f5291a47594,,500,500,fixation,,<div class = centerbox><div class = fixation>+</div></div>,none,500,test,,,,,,,,,,,715,66,poldrack-categorize,78,168728,0.0-78.0,b113efca-e0d2-4438-a759-0f5291a47594,,1500,250,stim,,"<div class = centerbox><div class = stroop-stim style = ""color:blue"">GREEN</div></div>","66,71,82",1500,test,TRUE,66,500,incongruent,blue,green,,,,,-1,-1,poldrack-single-stim,79,169489,0.0-79.0,b113efca-e0d2-4438-a759-0f5291a47594,,500,500,fixation,,<div class = centerbox><div class = fixation>+</div></div>,none,500,test,,,,,,,,,,,538,66,poldrack-categorize,80,172002,0.0-80.0,b113efca-e0d2-4438-a759-0f5291a47594,,1500,250,stim,,"<div class = centerbox><div class = stroop-stim style = ""color:blue"">BLUE</div></div>","66,71,82",1500,test,TRUE,66,500,congruent,blue,blue,,,,,-1,-1,poldrack-single-stim,81,172763,0.0-81.0,b113efca-e0d2-4438-a759-0f5291a47594,,500,500,fixation,,<div class = centerbox><div class = fixation>+</div></div>,none,500,test,,,,,,,,,,,616,71,poldrack-categorize,82,175274,0.0-82.0,b113efca-e0d2-4438-a759-0f5291a47594,,1500,250,stim,,"<div class = centerbox><div class = stroop-stim style = ""color:green"">RED</div></div>","66,71,82",1500,test,TRUE,71,500,incongruent,green,red,,,,,-1,-1,poldrack-single-stim,83,176031,0.0-83.0,b113efca-e0d2-4438-a759-0f5291a47594,,500,500,fixation,,<div class = centerbox><div class = fixation>+</div></div>,none,500,test,,,,,,,,,,,571,66,poldrack-categorize,84,178544,0.0-84.0,b113efca-e0d2-4438-a759-0f5291a47594,,1500,250,stim,,"<div class = centerbox><div class = stroop-stim style = ""color:blue"">BLUE</div></div>","66,71,82",1500,test,TRUE,66,500,congruent,blue,blue,,,,,-1,-1,poldrack-single-stim,85,179299,0.0-85.0,b113efca-e0d2-4438-a759-0f5291a47594,,500,500,fixation,,<div class = centerbox><div class = fixation>+</div></div>,none,500,test,,,,,,,,,,,647,82,poldrack-categorize,86,181812,0.0-86.0,b113efca-e0d2-4438-a759-0f5291a47594,,1500,250,stim,,"<div class = centerbox><div class = stroop-stim style = ""color:red"">BLUE</div></div>","66,71,82",1500,test,TRUE,82,500,incongruent,red,blue,,,,,-1,-1,poldrack-single-stim,87,182573,0.0-87.0,b113efca-e0d2-4438-a759-0f5291a47594,,500,500,fixation,,<div class = centerbox><div class = fixation>+</div></div>,none,500,test,,,,,,,,,,,630,66,poldrack-categorize,88,185086,0.0-88.0,b113efca-e0d2-4438-a759-0f5291a47594,,1500,250,stim,,"<div class = centerbox><div class = stroop-stim style = ""color:green"">RED</div></div>","66,71,82",1500,test,FALSE,71,500,incongruent,green,red,,,,,-1,-1,poldrack-single-stim,89,185846,0.0-89.0,b113efca-e0d2-4438-a759-0f5291a47594,,500,500,fixation,,<div class = centerbox><div class = fixation>+</div></div>,none,500,test,,,,,,,,,,,771,71,poldrack-categorize,90,188360,0.0-90.0,b113efca-e0d2-4438-a759-0f5291a47594,,1500,250,stim,,"<div class = centerbox><div class = stroop-stim style = ""color:green"">RED</div></div>","66,71,82",1500,test,TRUE,71,500,incongruent,green,red,,,,,-1,-1,poldrack-single-stim,91,189120,0.0-91.0,b113efca-e0d2-4438-a759-0f5291a47594,,500,500,fixation,,<div class = centerbox><div class = fixation>+</div></div>,none,500,test,,,,,,,,,,,560,66,poldrack-categorize,92,191633,0.0-92.0,b113efca-e0d2-4438-a759-0f5291a47594,,1500,250,stim,,"<div class = centerbox><div class = stroop-stim style = ""color:blue"">BLUE</div></div>","66,71,82",1500,test,TRUE,66,500,congruent,blue,blue,,,,,-1,-1,poldrack-single-stim,93,192394,0.0-93.0,b113efca-e0d2-4438-a759-0f5291a47594,,500,500,fixation,,<div class = centerbox><div class = fixation>+</div></div>,none,500,test,,,,,,,,,,,1078,71,poldrack-categorize,94,194907,0.0-94.0,b113efca-e0d2-4438-a759-0f5291a47594,,1500,250,stim,,"<div class = centerbox><div class = stroop-stim style = ""color:green"">GREEN</div></div>","66,71,82",1500,test,TRUE,71,500,congruent,green,green,,,,,-1,-1,poldrack-single-stim,95,195668,0.0-95.0,b113efca-e0d2-4438-a759-0f5291a47594,,500,500,fixation,,<div class = centerbox><div class = fixation>+</div></div>,none,500,test,,,,,,,,,,,628,66,poldrack-categorize,96,198181,0.0-96.0,b113efca-e0d2-4438-a759-0f5291a47594,,1500,250,stim,,"<div class = centerbox><div class = stroop-stim style = ""color:blue"">BLUE</div></div>","66,71,82",1500,test,TRUE,66,500,congruent,blue,blue,,,,,-1,-1,poldrack-single-stim,97,198942,0.0-97.0,b113efca-e0d2-4438-a759-0f5291a47594,,500,500,fixation,,<div class = centerbox><div class = fixation>+</div></div>,none,500,test,,,,,,,,,,,411,82,poldrack-categorize,98,201455,0.0-98.0,b113efca-e0d2-4438-a759-0f5291a47594,,1500,250,stim,,"<div class = centerbox><div class = stroop-stim style = ""color:red"">GREEN</div></div>","66,71,82",1500,test,TRUE,82,500,incongruent,red,green,,,,,-1,-1,poldrack-single-stim,99,202212,0.0-99.0,b113efca-e0d2-4438-a759-0f5291a47594,,500,500,fixation,,<div class = centerbox><div class = fixation>+</div></div>,none,500,test,,,,,,,,,,,-1,-1,poldrack-categorize,100,204723,0.0-100.0,b113efca-e0d2-4438-a759-0f5291a47594,,1500,250,stim,,"<div class = centerbox><div class = stroop-stim style = ""color:blue"">RED</div></div>","66,71,82",1500,test,FALSE,66,500,incongruent,blue,red,,,,,-1,-1,poldrack-single-stim,101,205483,0.0-101.0,b113efca-e0d2-4438-a759-0f5291a47594,,500,500,fixation,,<div class = centerbox><div class = fixation>+</div></div>,none,500,test,,,,,,,,,,,764,82,poldrack-categorize,102,207997,0.0-102.0,b113efca-e0d2-4438-a759-0f5291a47594,,1500,250,stim,,"<div class = centerbox><div class = stroop-stim style = ""color:red"">GREEN</div></div>","66,71,82",1500,test,TRUE,82,500,incongruent,red,green,,,,,-1,-1,poldrack-single-stim,103,208757,0.0-103.0,b113efca-e0d2-4438-a759-0f5291a47594,,500,500,fixation,,<div class = centerbox><div class = fixation>+</div></div>,none,500,test,,,,,,,,,,,674,66,poldrack-categorize,104,211270,0.0-104.0,b113efca-e0d2-4438-a759-0f5291a47594,,1500,250,stim,,"<div class = centerbox><div class = stroop-stim style = ""color:blue"">GREEN</div></div>","66,71,82",1500,test,TRUE,66,500,incongruent,blue,green,,,,,-1,-1,poldrack-single-stim,105,212031,0.0-105.0,b113efca-e0d2-4438-a759-0f5291a47594,,500,500,fixation,,<div class = centerbox><div class = fixation>+</div></div>,none,500,test,,,,,,,,,,,792,71,poldrack-categorize,106,214547,0.0-106.0,b113efca-e0d2-4438-a759-0f5291a47594,,1500,250,stim,,"<div class = centerbox><div class = stroop-stim style = ""color:green"">GREEN</div></div>","66,71,82",1500,test,TRUE,71,500,congruent,green,green,,,,,-1,-1,poldrack-single-stim,107,215307,0.0-107.0,b113efca-e0d2-4438-a759-0f5291a47594,,500,500,fixation,,<div class = centerbox><div class = fixation>+</div></div>,none,500,test,,,,,,,,,,,606,82,poldrack-categorize,108,217818,0.0-108.0,b113efca-e0d2-4438-a759-0f5291a47594,,1500,250,stim,,"<div class = centerbox><div class = stroop-stim style = ""color:red"">GREEN</div></div>","66,71,82",1500,test,TRUE,82,500,incongruent,red,green,,,,,-1,-1,poldrack-single-stim,109,218577,0.0-109.0,b113efca-e0d2-4438-a759-0f5291a47594,,500,500,fixation,,<div class = centerbox><div class = fixation>+</div></div>,none,500,test,,,,,,,,,,,690,82,poldrack-categorize,110,221086,0.0-110.0,b113efca-e0d2-4438-a759-0f5291a47594,,1500,250,stim,,"<div class = centerbox><div class = stroop-stim style = ""color:red"">RED</div></div>","66,71,82",1500,test,TRUE,82,500,congruent,red,red,,,,,-1,-1,poldrack-single-stim,111,221847,0.0-111.0,b113efca-e0d2-4438-a759-0f5291a47594,,500,500,fixation,,<div class = centerbox><div class = fixation>+</div></div>,none,500,test,,,,,,,,,,,481,82,poldrack-categorize,112,224360,0.0-112.0,b113efca-e0d2-4438-a759-0f5291a47594,,1500,250,stim,,"<div class = centerbox><div class = stroop-stim style = ""color:red"">RED</div></div>","66,71,82",1500,test,TRUE,82,500,congruent,red,red,,,,,-1,-1,poldrack-single-stim,113,225121,0.0-113.0,b113efca-e0d2-4438-a759-0f5291a47594,,500,500,fixation,,<div class = centerbox><div class = fixation>+</div></div>,none,500,test,,,,,,,,,,,966,71,poldrack-categorize,114,227634,0.0-114.0,b113efca-e0d2-4438-a759-0f5291a47594,,1500,250,stim,,"<div class = centerbox><div class = stroop-stim style = ""color:green"">GREEN</div></div>","66,71,82",1500,test,TRUE,71,500,congruent,green,green,,,,,-1,-1,poldrack-single-stim,115,228394,0.0-115.0,b113efca-e0d2-4438-a759-0f5291a47594,,500,500,fixation,,<div class = centerbox><div class = fixation>+</div></div>,none,500,test,,,,,,,,,,,525,66,poldrack-categorize,116,230902,0.0-116.0,b113efca-e0d2-4438-a759-0f5291a47594,,1500,250,stim,,"<div class = centerbox><div class = stroop-stim style = ""color:blue"">GREEN</div></div>","66,71,82",1500,test,TRUE,66,500,incongruent,blue,green,,,,,-1,-1,poldrack-single-stim,117,231662,0.0-117.0,b113efca-e0d2-4438-a759-0f5291a47594,,500,500,fixation,,<div class = centerbox><div class = fixation>+</div></div>,none,500,test,,,,,,,,,,,1417,71,poldrack-categorize,118,234176,0.0-118.0,b113efca-e0d2-4438-a759-0f5291a47594,,1500,250,stim,,"<div class = centerbox><div class = stroop-stim style = ""color:green"">GREEN</div></div>","66,71,82",1500,test,TRUE,71,500,congruent,green,green,,,,,-1,-1,poldrack-single-stim,119,234936,0.0-119.0,b113efca-e0d2-4438-a759-0f5291a47594,,500,500,fixation,,<div class = centerbox><div class = fixation>+</div></div>,none,500,test,,,,,,,,,,,622,66,poldrack-categorize,120,237449,0.0-120.0,b113efca-e0d2-4438-a759-0f5291a47594,,1500,250,stim,,"<div class = centerbox><div class = stroop-stim style = ""color:blue"">RED</div></div>","66,71,82",1500,test,TRUE,66,500,incongruent,blue,red,,,,,-1,-1,poldrack-single-stim,121,238208,0.0-121.0,b113efca-e0d2-4438-a759-0f5291a47594,,500,500,fixation,,<div class = centerbox><div class = fixation>+</div></div>,none,500,test,,,,,,,,,,,921,71,poldrack-categorize,122,240717,0.0-122.0,b113efca-e0d2-4438-a759-0f5291a47594,,1500,250,stim,,"<div class = centerbox><div class = stroop-stim style = ""color:green"">GREEN</div></div>","66,71,82",1500,test,TRUE,71,500,congruent,green,green,,,,,-1,-1,poldrack-single-stim,123,241478,0.0-123.0,b113efca-e0d2-4438-a759-0f5291a47594,,500,500,fixation,,<div class = centerbox><div class = fixation>+</div></div>,none,500,test,,,,,,,,,,,736,82,poldrack-categorize,124,243991,0.0-124.0,b113efca-e0d2-4438-a759-0f5291a47594,,1500,250,stim,,"<div class = centerbox><div class = stroop-stim style = ""color:red"">RED</div></div>","66,71,82",1500,test,TRUE,82,500,congruent,red,red,,,,,-1,-1,poldrack-single-stim,125,244752,0.0-125.0,b113efca-e0d2-4438-a759-0f5291a47594,,500,500,fixation,,<div class = centerbox><div class = fixation>+</div></div>,none,500,test,,,,,,,,,,,824,71,poldrack-categorize,126,247265,0.0-126.0,b113efca-e0d2-4438-a759-0f5291a47594,,1500,250,stim,,"<div class = centerbox><div class = stroop-stim style = ""color:green"">RED</div></div>","66,71,82",1500,test,TRUE,71,500,incongruent,green,red,,,,,-1,-1,poldrack-single-stim,127,248025,0.0-127.0,b113efca-e0d2-4438-a759-0f5291a47594,,500,500,fixation,,<div class = centerbox><div class = fixation>+</div></div>,none,500,test,,,,,,,,,,,620,66,poldrack-categorize,128,250539,0.0-128.0,b113efca-e0d2-4438-a759-0f5291a47594,,1500,250,stim,,"<div class = centerbox><div class = stroop-stim style = ""color:blue"">BLUE</div></div>","66,71,82",1500,test,TRUE,66,500,congruent,blue,blue,,,,,-1,-1,poldrack-single-stim,129,251300,0.0-129.0,b113efca-e0d2-4438-a759-0f5291a47594,,500,500,fixation,,<div class = centerbox><div class = fixation>+</div></div>,none,500,test,,,,,,,,,,,498,82,poldrack-categorize,130,253813,0.0-130.0,b113efca-e0d2-4438-a759-0f5291a47594,,1500,250,stim,,"<div class = centerbox><div class = stroop-stim style = ""color:red"">RED</div></div>","66,71,82",1500,test,TRUE,82,500,congruent,red,red,,,,,-1,-1,poldrack-single-stim,131,254574,0.0-131.0,b113efca-e0d2-4438-a759-0f5291a47594,,500,500,fixation,,<div class = centerbox><div class = fixation>+</div></div>,none,500,test,,,,,,,,,,,920,66,poldrack-categorize,132,257087,0.0-132.0,b113efca-e0d2-4438-a759-0f5291a47594,,1500,250,stim,,"<div class = centerbox><div class = stroop-stim style = ""color:blue"">BLUE</div></div>","66,71,82",1500,test,TRUE,66,500,congruent,blue,blue,,,,,-1,-1,poldrack-single-stim,133,257847,0.0-133.0,b113efca-e0d2-4438-a759-0f5291a47594,,500,500,fixation,,<div class = centerbox><div class = fixation>+</div></div>,none,500,test,,,,,,,,,,,454,66,poldrack-categorize,134,260360,0.0-134.0,b113efca-e0d2-4438-a759-0f5291a47594,,1500,250,stim,,"<div class = centerbox><div class = stroop-stim style = ""color:blue"">BLUE</div></div>","66,71,82",1500,test,TRUE,66,500,congruent,blue,blue,,,,,-1,-1,poldrack-single-stim,135,261121,0.0-135.0,b113efca-e0d2-4438-a759-0f5291a47594,,500,500,fixation,,<div class = centerbox><div class = fixation>+</div></div>,none,500,test,,,,,,,,,,,579,71,poldrack-categorize,136,263634,0.0-136.0,b113efca-e0d2-4438-a759-0f5291a47594,,1500,250,stim,,"<div class = centerbox><div class = stroop-stim style = ""color:green"">GREEN</div></div>","66,71,82",1500,test,TRUE,71,500,congruent,green,green,,,,,-1,-1,poldrack-single-stim,137,264395,0.0-137.0,b113efca-e0d2-4438-a759-0f5291a47594,,500,500,fixation,,<div class = centerbox><div class = fixation>+</div></div>,none,500,test,,,,,,,,,,,585,82,poldrack-categorize,138,266908,0.0-138.0,b113efca-e0d2-4438-a759-0f5291a47594,,1500,250,stim,,"<div class = centerbox><div class = stroop-stim style = ""color:red"">RED</div></div>","66,71,82",1500,test,TRUE,82,500,congruent,red,red,,,,,-1,-1,poldrack-single-stim,139,267669,0.0-139.0,b113efca-e0d2-4438-a759-0f5291a47594,,500,500,fixation,,<div class = centerbox><div class = fixation>+</div></div>,none,500,test,,,,,,,,,,,1336,71,poldrack-categorize,140,270182,0.0-140.0,b113efca-e0d2-4438-a759-0f5291a47594,,1500,250,stim,,"<div class = centerbox><div class = stroop-stim style = ""color:green"">GREEN</div></div>","66,71,82",1500,test,TRUE,71,500,congruent,green,green,,,,,-1,-1,poldrack-single-stim,141,270942,0.0-141.0,b113efca-e0d2-4438-a759-0f5291a47594,,500,500,fixation,,<div class = centerbox><div class = fixation>+</div></div>,none,500,test,,,,,,,,,,,-1,-1,poldrack-categorize,142,273456,0.0-142.0,b113efca-e0d2-4438-a759-0f5291a47594,,1500,250,stim,,"<div class = centerbox><div class = stroop-stim style = ""color:green"">GREEN</div></div>","66,71,82",1500,test,FALSE,71,500,congruent,green,green,,,,,-1,-1,poldrack-single-stim,143,274216,0.0-143.0,b113efca-e0d2-4438-a759-0f5291a47594,,500,500,fixation,,<div class = centerbox><div class = fixation>+</div></div>,none,500,test,,,,,,,,,,,883,66,poldrack-categorize,144,276729,0.0-144.0,b113efca-e0d2-4438-a759-0f5291a47594,,1500,250,stim,,"<div class = centerbox><div class = stroop-stim style = ""color:blue"">GREEN</div></div>","66,71,82",1500,test,TRUE,66,500,incongruent,blue,green,,,,,-1,-1,poldrack-single-stim,145,277490,0.0-145.0,b113efca-e0d2-4438-a759-0f5291a47594,,500,500,fixation,,<div class = centerbox><div class = fixation>+</div></div>,none,500,test,,,,,,,,,,,666,66,poldrack-categorize,146,280003,0.0-146.0,b113efca-e0d2-4438-a759-0f5291a47594,,1500,250,stim,,"<div class = centerbox><div class = stroop-stim style = ""color:blue"">RED</div></div>","66,71,82",1500,test,TRUE,66,500,incongruent,blue,red,,,,,-1,-1,poldrack-single-stim,147,280764,0.0-147.0,b113efca-e0d2-4438-a759-0f5291a47594,,500,500,fixation,,<div class = centerbox><div class = fixation>+</div></div>,none,500,test,,,,,,,,,,,807,71,poldrack-categorize,148,283277,0.0-148.0,b113efca-e0d2-4438-a759-0f5291a47594,,1500,250,stim,,"<div class = centerbox><div class = stroop-stim style = ""color:green"">RED</div></div>","66,71,82",1500,test,TRUE,71,500,incongruent,green,red,,,,,-1,-1,poldrack-single-stim,149,284038,0.0-149.0,b113efca-e0d2-4438-a759-0f5291a47594,,500,500,fixation,,<div class = centerbox><div class = fixation>+</div></div>,none,500,test,,,,,,,,,,,645,82,poldrack-categorize,150,286551,0.0-150.0,b113efca-e0d2-4438-a759-0f5291a47594,,1500,250,stim,,"<div class = centerbox><div class = stroop-stim style = ""color:red"">GREEN</div></div>","66,71,82",1500,test,TRUE,82,500,incongruent,red,green,,,,,-1,-1,poldrack-single-stim,151,287311,0.0-151.0,b113efca-e0d2-4438-a759-0f5291a47594,,500,500,fixation,,<div class = centerbox><div class = fixation>+</div></div>,none,500,test,,,,,,,,,,,851,82,poldrack-categorize,152,289825,0.0-152.0,b113efca-e0d2-4438-a759-0f5291a47594,,1500,250,stim,,"<div class = centerbox><div class = stroop-stim style = ""color:red"">BLUE</div></div>","66,71,82",1500,test,TRUE,82,500,incongruent,red,blue,,,,,-1,-1,poldrack-single-stim,153,290585,0.0-153.0,b113efca-e0d2-4438-a759-0f5291a47594,,500,500,fixation,,<div class = centerbox><div class = fixation>+</div></div>,none,500,test,,,,,,,,,,,697,66,poldrack-categorize,154,293096,0.0-154.0,b113efca-e0d2-4438-a759-0f5291a47594,,1500,250,stim,,"<div class = centerbox><div class = stroop-stim style = ""color:blue"">BLUE</div></div>","66,71,82",1500,test,TRUE,66,500,congruent,blue,blue,,,,,-1,-1,poldrack-single-stim,155,293853,0.0-155.0,b113efca-e0d2-4438-a759-0f5291a47594,,500,500,fixation,,<div class = centerbox><div class = fixation>+</div></div>,none,500,test,,,,,,,,,,,677,82,poldrack-categorize,156,296366,0.0-156.0,b113efca-e0d2-4438-a759-0f5291a47594,,1500,250,stim,,"<div class = centerbox><div class = stroop-stim style = ""color:red"">GREEN</div></div>","66,71,82",1500,test,TRUE,82,500,incongruent,red,green,,,,,-1,-1,poldrack-single-stim,157,297122,0.0-157.0,b113efca-e0d2-4438-a759-0f5291a47594,,500,500,fixation,,<div class = centerbox><div class = fixation>+</div></div>,none,500,test,,,,,,,,,,,665,82,poldrack-categorize,158,299634,0.0-158.0,b113efca-e0d2-4438-a759-0f5291a47594,,1500,250,stim,,"<div class = centerbox><div class = stroop-stim style = ""color:red"">BLUE</div></div>","66,71,82",1500,test,TRUE,82,500,incongruent,red,blue,,,,,-1,-1,poldrack-single-stim,159,300395,0.0-159.0,b113efca-e0d2-4438-a759-0f5291a47594,,500,500,fixation,,<div class = centerbox><div class = fixation>+</div></div>,none,500,test,,,,,,,,,,,815,66,poldrack-categorize,160,302908,0.0-160.0,b113efca-e0d2-4438-a759-0f5291a47594,,1500,250,stim,,"<div class = centerbox><div class = stroop-stim style = ""color:blue"">BLUE</div></div>","66,71,82",1500,test,TRUE,66,500,congruent,blue,blue,,,,,-1,-1,poldrack-single-stim,161,303663,0.0-161.0,b113efca-e0d2-4438-a759-0f5291a47594,,500,500,fixation,,<div class = centerbox><div class = fixation>+</div></div>,none,500,test,,,,,,,,,,,714,66,poldrack-categorize,162,306176,0.0-162.0,b113efca-e0d2-4438-a759-0f5291a47594,,1500,250,stim,,"<div class = centerbox><div class = stroop-stim style = ""color:blue"">BLUE</div></div>","66,71,82",1500,test,TRUE,66,500,congruent,blue,blue,,,,,-1,-1,poldrack-single-stim,163,306937,0.0-163.0,b113efca-e0d2-4438-a759-0f5291a47594,,500,500,fixation,,<div class = centerbox><div class = fixation>+</div></div>,none,500,test,,,,,,,,,,,587,82,poldrack-categorize,164,309450,0.0-164.0,b113efca-e0d2-4438-a759-0f5291a47594,,1500,250,stim,,"<div class = centerbox><div class = stroop-stim style = ""color:red"">RED</div></div>","66,71,82",1500,test,TRUE,82,500,congruent,red,red,,,,,-1,-1,poldrack-single-stim,165,310211,0.0-165.0,b113efca-e0d2-4438-a759-0f5291a47594,,500,500,fixation,,<div class = centerbox><div class = fixation>+</div></div>,none,500,test,,,,,,,,,,,614,71,poldrack-categorize,166,312724,0.0-166.0,b113efca-e0d2-4438-a759-0f5291a47594,,1500,250,stim,,"<div class = centerbox><div class = stroop-stim style = ""color:green"">GREEN</div></div>","66,71,82",1500,test,TRUE,71,500,congruent,green,green,,,,,-1,-1,poldrack-single-stim,167,313485,0.0-167.0,b113efca-e0d2-4438-a759-0f5291a47594,,500,500,fixation,,<div class = centerbox><div class = fixation>+</div></div>,none,500,test,,,,,,,,,,,637,71,poldrack-categorize,168,315998,0.0-168.0,b113efca-e0d2-4438-a759-0f5291a47594,,1500,250,stim,,"<div class = centerbox><div class = stroop-stim style = ""color:green"">RED</div></div>","66,71,82",1500,test,TRUE,71,500,incongruent,green,red,,,,,-1,-1,poldrack-single-stim,169,316755,0.0-169.0,b113efca-e0d2-4438-a759-0f5291a47594,,500,500,fixation,,<div class = centerbox><div class = fixation>+</div></div>,none,500,test,,,,,,,,,,,753,66,poldrack-categorize,170,319266,0.0-170.0,b113efca-e0d2-4438-a759-0f5291a47594,,1500,250,stim,,"<div class = centerbox><div class = stroop-stim style = ""color:blue"">RED</div></div>","66,71,82",1500,test,TRUE,66,500,incongruent,blue,red,,,,,-1,-1,poldrack-single-stim,171,320026,0.0-171.0,b113efca-e0d2-4438-a759-0f5291a47594,,500,500,fixation,,<div class = centerbox><div class = fixation>+</div></div>,none,500,test,,,,,,,,,,,455,66,poldrack-categorize,172,322540,0.0-172.0,b113efca-e0d2-4438-a759-0f5291a47594,,1500,250,stim,,"<div class = centerbox><div class = stroop-stim style = ""color:blue"">BLUE</div></div>","66,71,82",1500,test,TRUE,66,500,congruent,blue,blue,,,,,-1,-1,poldrack-single-stim,173,323300,0.0-173.0,b113efca-e0d2-4438-a759-0f5291a47594,,500,500,fixation,,<div class = centerbox><div class = fixation>+</div></div>,none,500,test,,,,,,,,,,,708,66,poldrack-categorize,174,325814,0.0-174.0,b113efca-e0d2-4438-a759-0f5291a47594,,1500,250,stim,,"<div class = centerbox><div class = stroop-stim style = ""color:blue"">RED</div></div>","66,71,82",1500,test,TRUE,66,500,incongruent,blue,red,,,,,-1,-1,poldrack-single-stim,175,326574,0.0-175.0,b113efca-e0d2-4438-a759-0f5291a47594,,500,500,fixation,,<div class = centerbox><div class = fixation>+</div></div>,none,500,test,,,,,,,,,,,442,71,poldrack-categorize,176,329087,0.0-176.0,b113efca-e0d2-4438-a759-0f5291a47594,,1500,250,stim,,"<div class = centerbox><div class = stroop-stim style = ""color:green"">BLUE</div></div>","66,71,82",1500,test,TRUE,71,500,incongruent,green,blue,,,,,-1,-1,poldrack-single-stim,177,329848,0.0-177.0,b113efca-e0d2-4438-a759-0f5291a47594,,500,500,fixation,,<div class = centerbox><div class = fixation>+</div></div>,none,500,test,,,,,,,,,,,808,71,poldrack-categorize,178,332355,0.0-178.0,b113efca-e0d2-4438-a759-0f5291a47594,,1500,250,stim,,"<div class = centerbox><div class = stroop-stim style = ""color:green"">RED</div></div>","66,71,82",1500,test,TRUE,71,500,incongruent,green,red,,,,,-1,-1,poldrack-single-stim,179,333116,0.0-179.0,b113efca-e0d2-4438-a759-0f5291a47594,,500,500,fixation,,<div class = centerbox><div class = fixation>+</div></div>,none,500,test,,,,,,,,,,,404,71,poldrack-categorize,180,335629,0.0-180.0,b113efca-e0d2-4438-a759-0f5291a47594,,1500,250,stim,,"<div class = centerbox><div class = stroop-stim style = ""color:green"">BLUE</div></div>","66,71,82",1500,test,TRUE,71,500,incongruent,green,blue,,,,,-1,-1,poldrack-single-stim,181,336390,0.0-181.0,b113efca-e0d2-4438-a759-0f5291a47594,,500,500,fixation,,<div class = centerbox><div class = fixation>+</div></div>,none,500,test,,,,,,,,,,,538,71,poldrack-categorize,182,338903,0.0-182.0,b113efca-e0d2-4438-a759-0f5291a47594,,1500,250,stim,,"<div class = centerbox><div class = stroop-stim style = ""color:green"">BLUE</div></div>","66,71,82",1500,test,TRUE,71,500,incongruent,green,blue,,,,,-1,-1,poldrack-single-stim,183,339660,0.0-183.0,b113efca-e0d2-4438-a759-0f5291a47594,,500,500,fixation,,<div class = centerbox><div class = fixation>+</div></div>,none,500,test,,,,,,,,,,,917,82,poldrack-categorize,184,342171,0.0-184.0,b113efca-e0d2-4438-a759-0f5291a47594,,1500,250,stim,,"<div class = centerbox><div class = stroop-stim style = ""color:red"">BLUE</div></div>","66,71,82",1500,test,TRUE,82,500,incongruent,red,blue,,,,,-1,-1,poldrack-single-stim,185,342932,0.0-185.0,b113efca-e0d2-4438-a759-0f5291a47594,,500,500,fixation,,<div class = centerbox><div class = fixation>+</div></div>,none,500,test,,,,,,,,,,,804,66,poldrack-categorize,186,345445,0.0-186.0,b113efca-e0d2-4438-a759-0f5291a47594,,1500,250,stim,,"<div class = centerbox><div class = stroop-stim style = ""color:blue"">BLUE</div></div>","66,71,82",1500,test,TRUE,66,500,congruent,blue,blue,,,,,-1,-1,poldrack-single-stim,187,346201,0.0-187.0,b113efca-e0d2-4438-a759-0f5291a47594,,500,500,fixation,,<div class = centerbox><div class = fixation>+</div></div>,none,500,test,,,,,,,,,,,400,71,poldrack-categorize,188,348713,0.0-188.0,b113efca-e0d2-4438-a759-0f5291a47594,,1500,250,stim,,"<div class = centerbox><div class = stroop-stim style = ""color:red"">RED</div></div>","66,71,82",1500,test,FALSE,82,500,congruent,red,red,,,,,-1,-1,poldrack-single-stim,189,349473,0.0-189.0,b113efca-e0d2-4438-a759-0f5291a47594,,500,500,fixation,,<div class = centerbox><div class = fixation>+</div></div>,none,500,test,,,,,,,,,,,766,71,poldrack-categorize,190,351987,0.0-190.0,b113efca-e0d2-4438-a759-0f5291a47594,,1500,250,stim,,"<div class = centerbox><div class = stroop-stim style = ""color:green"">GREEN</div></div>","66,71,82",1500,test,TRUE,71,500,congruent,green,green,,,,,-1,-1,poldrack-single-stim,191,352747,0.0-191.0,b113efca-e0d2-4438-a759-0f5291a47594,,500,500,fixation,,<div class = centerbox><div class = fixation>+</div></div>,none,500,test,,,,,,,,,,,644,82,poldrack-categorize,192,355260,0.0-192.0,b113efca-e0d2-4438-a759-0f5291a47594,,1500,250,stim,,"<div class = centerbox><div class = stroop-stim style = ""color:red"">RED</div></div>","66,71,82",1500,test,TRUE,82,500,congruent,red,red,,,,,-1,-1,poldrack-single-stim,193,356019,0.0-193.0,b113efca-e0d2-4438-a759-0f5291a47594,,500,500,fixation,,<div class = centerbox><div class = fixation>+</div></div>,none,500,test,,,,,,,,,,,872,66,poldrack-categorize,194,358525,0.0-194.0,b113efca-e0d2-4438-a759-0f5291a47594,,1500,250,stim,,"<div class = centerbox><div class = stroop-stim style = ""color:blue"">GREEN</div></div>","66,71,82",1500,test,TRUE,66,500,incongruent,blue,green,,,,,-1,-1,poldrack-single-stim,195,359283,0.0-195.0,b113efca-e0d2-4438-a759-0f5291a47594,,500,500,fixation,,<div class = centerbox><div class = fixation>+</div></div>,none,500,test,,,,,,,,,,,667,66,poldrack-categorize,196,361796,0.0-196.0,b113efca-e0d2-4438-a759-0f5291a47594,,1500,250,stim,,"<div class = centerbox><div class = stroop-stim style = ""color:blue"">RED</div></div>","66,71,82",1500,test,TRUE,66,500,incongruent,blue,red,,,,,-1,-1,poldrack-single-stim,197,362557,0.0-197.0,b113efca-e0d2-4438-a759-0f5291a47594,,500,500,fixation,,<div class = centerbox><div class = fixation>+</div></div>,none,500,test,,,,,,,,,,,889,71,poldrack-categorize,198,365070,0.0-198.0,b113efca-e0d2-4438-a759-0f5291a47594,,1500,250,stim,,"<div class = centerbox><div class = stroop-stim style = ""color:green"">RED</div></div>","66,71,82",1500,test,TRUE,71,500,incongruent,green,red,,,,,-1,-1,poldrack-single-stim,199,365831,0.0-199.0,b113efca-e0d2-4438-a759-0f5291a47594,,500,500,fixation,,<div class = centerbox><div class = fixation>+</div></div>,none,500,test,,,,,,,,,,,688,82,poldrack-categorize,200,368344,0.0-200.0,b113efca-e0d2-4438-a759-0f5291a47594,,1500,250,stim,,"<div class = centerbox><div class = stroop-stim style = ""color:red"">RED</div></div>","66,71,82",1500,test,TRUE,82,500,congruent,red,red,,,,,-1,-1,poldrack-single-stim,201,369105,0.0-201.0,b113efca-e0d2-4438-a759-0f5291a47594,,500,500,fixation,,<div class = centerbox><div class = fixation>+</div></div>,none,500,test,,,,,,,,,,,606,66,poldrack-categorize,202,371618,0.0-202.0,b113efca-e0d2-4438-a759-0f5291a47594,,1500,250,stim,,"<div class = centerbox><div class = stroop-stim style = ""color:green"">BLUE</div></div>","66,71,82",1500,test,FALSE,71,500,incongruent,green,blue,,,,,-1,-1,poldrack-single-stim,203,372379,0.0-203.0,b113efca-e0d2-4438-a759-0f5291a47594,,500,500,fixation,,<div class = centerbox><div class = fixation>+</div></div>,none,500,test,,,,,,,,,,,875,66,poldrack-categorize,204,374892,0.0-204.0,b113efca-e0d2-4438-a759-0f5291a47594,,1500,250,stim,,"<div class = centerbox><div class = stroop-stim style = ""color:blue"">GREEN</div></div>","66,71,82",1500,test,TRUE,66,500,incongruent,blue,green,,,,,-1,-1,poldrack-single-stim,205,375652,0.0-205.0,b113efca-e0d2-4438-a759-0f5291a47594,,500,500,fixation,,<div class = centerbox><div class = fixation>+</div></div>,none,500,test,,,,,,,,,,,569,66,poldrack-categorize,206,378166,0.0-206.0,b113efca-e0d2-4438-a759-0f5291a47594,,1500,250,stim,,"<div class = centerbox><div class = stroop-stim style = ""color:blue"">BLUE</div></div>","66,71,82",1500,test,TRUE,66,500,congruent,blue,blue,,,,,-1,-1,poldrack-single-stim,207,378920,0.0-207.0,b113efca-e0d2-4438-a759-0f5291a47594,,500,500,fixation,,<div class = centerbox><div class = fixation>+</div></div>,none,500,test,,,,,,,,,,,581,71,poldrack-categorize,208,381432,0.0-208.0,b113efca-e0d2-4438-a759-0f5291a47594,,1500,250,stim,,"<div class = centerbox><div class = stroop-stim style = ""color:green"">GREEN</div></div>","66,71,82",1500,test,TRUE,71,500,congruent,green,green,,,,,-1,-1,poldrack-single-stim,209,382188,0.0-209.0,b113efca-e0d2-4438-a759-0f5291a47594,,500,500,fixation,,<div class = centerbox><div class = fixation>+</div></div>,none,500,test,,,,,,,,,,,433,71,poldrack-categorize,210,384702,0.0-210.0,b113efca-e0d2-4438-a759-0f5291a47594,,1500,250,stim,,"<div class = centerbox><div class = stroop-stim style = ""color:green"">GREEN</div></div>","66,71,82",1500,test,TRUE,71,500,congruent,green,green,,,,,-1,-1,poldrack-single-stim,211,385459,0.0-211.0,b113efca-e0d2-4438-a759-0f5291a47594,,500,500,fixation,,<div class = centerbox><div class = fixation>+</div></div>,none,500,test,,,,,,,,,,,668,71,poldrack-categorize,212,387970,0.0-212.0,b113efca-e0d2-4438-a759-0f5291a47594,,1500,250,stim,,"<div class = centerbox><div class = stroop-stim style = ""color:green"">BLUE</div></div>","66,71,82",1500,test,TRUE,71,500,incongruent,green,blue,,,,,-1,-1,poldrack-single-stim,213,388730,0.0-213.0,b113efca-e0d2-4438-a759-0f5291a47594,,500,500,fixation,,<div class = centerbox><div class = fixation>+</div></div>,none,500,test,,,,,,,,,,,650,82,poldrack-categorize,214,391243,0.0-214.0,b113efca-e0d2-4438-a759-0f5291a47594,,1500,250,stim,,"<div class = centerbox><div class = stroop-stim style = ""color:red"">RED</div></div>","66,71,82",1500,test,TRUE,82,500,congruent,red,red,,,,,-1,-1,poldrack-single-stim,215,392004,0.0-215.0,b113efca-e0d2-4438-a759-0f5291a47594,,500,500,fixation,,<div class = centerbox><div class = fixation>+</div></div>,none,500,test,,,,,,,,,,,576,82,poldrack-categorize,216,394517,0.0-216.0,b113efca-e0d2-4438-a759-0f5291a47594,,1500,250,stim,,"<div class = centerbox><div class = stroop-stim style = ""color:red"">GREEN</div></div>","66,71,82",1500,test,TRUE,82,500,incongruent,red,green,,,,,-1,-1,poldrack-single-stim,217,395274,0.0-217.0,b113efca-e0d2-4438-a759-0f5291a47594,,500,500,fixation,,<div class = centerbox><div class = fixation>+</div></div>,none,500,test,,,,,,,,,,,412,82,poldrack-categorize,218,397785,0.0-218.0,b113efca-e0d2-4438-a759-0f5291a47594,,1500,250,stim,,"<div class = centerbox><div class = stroop-stim style = ""color:red"">RED</div></div>","66,71,82",1500,test,TRUE,82,500,congruent,red,red,,,,,-1,-1,poldrack-single-stim,219,398546,0.0-219.0,b113efca-e0d2-4438-a759-0f5291a47594,,500,500,fixation,,<div class = centerbox><div class = fixation>+</div></div>,none,500,test,,,,,,,,,,,714,66,poldrack-categorize,220,401059,0.0-220.0,b113efca-e0d2-4438-a759-0f5291a47594,,1500,250,stim,,"<div class = centerbox><div class = stroop-stim style = ""color:green"">BLUE</div></div>","66,71,82",1500,test,FALSE,71,500,incongruent,green,blue,,,,,-1,-1,poldrack-single-stim,221,401820,0.0-221.0,b113efca-e0d2-4438-a759-0f5291a47594,,500,500,fixation,,<div class = centerbox><div class = fixation>+</div></div>,none,500,test,,,,,,,,,,,1490,82,poldrack-categorize,222,404327,0.0-222.0,b113efca-e0d2-4438-a759-0f5291a47594,,1500,250,stim,,"<div class = centerbox><div class = stroop-stim style = ""color:red"">RED</div></div>","66,71,82",1500,test,TRUE,82,500,congruent,red,red,,,,,-1,-1,poldrack-single-stim,223,405088,0.0-223.0,b113efca-e0d2-4438-a759-0f5291a47594,,500,500,fixation,,<div class = centerbox><div class = fixation>+</div></div>,none,500,test,,,,,,,,,,,749,71,poldrack-categorize,224,407603,0.0-224.0,b113efca-e0d2-4438-a759-0f5291a47594,,1500,250,stim,,"<div class = centerbox><div class = stroop-stim style = ""color:green"">GREEN</div></div>","66,71,82",1500,test,TRUE,71,500,congruent,green,green,,,,,-1,-1,poldrack-single-stim,225,408361,0.0-225.0,b113efca-e0d2-4438-a759-0f5291a47594,,500,500,fixation,,<div class = centerbox><div class = fixation>+</div></div>,none,500,test,,,,,,,,,,,586,82,poldrack-categorize,226,410875,0.0-226.0,b113efca-e0d2-4438-a759-0f5291a47594,,1500,250,stim,,"<div class = centerbox><div class = stroop-stim style = ""color:red"">RED</div></div>","66,71,82",1500,test,TRUE,82,500,congruent,red,red,,,,,-1,-1,poldrack-single-stim,227,411635,0.0-227.0,b113efca-e0d2-4438-a759-0f5291a47594,,500,500,fixation,,<div class = centerbox><div class = fixation>+</div></div>,none,500,test,,,,,,,,,,,744,82,poldrack-categorize,228,414147,0.0-228.0,b113efca-e0d2-4438-a759-0f5291a47594,,1500,250,stim,,"<div class = centerbox><div class = stroop-stim style = ""color:red"">BLUE</div></div>","66,71,82",1500,test,TRUE,82,500,incongruent,red,blue,,,,,-1,-1,poldrack-single-stim,229,414903,0.0-229.0,b113efca-e0d2-4438-a759-0f5291a47594,,500,500,fixation,,<div class = centerbox><div class = fixation>+</div></div>,none,500,test,,,,,,,,,,,1044,66,poldrack-categorize,230,417417,0.0-230.0,b113efca-e0d2-4438-a759-0f5291a47594,,1500,250,stim,,"<div class = centerbox><div class = stroop-stim style = ""color:blue"">BLUE</div></div>","66,71,82",1500,test,TRUE,66,500,congruent,blue,blue,,,,,-1,-1,poldrack-single-stim,231,418173,0.0-231.0,b113efca-e0d2-4438-a759-0f5291a47594,,500,500,fixation,,<div class = centerbox><div class = fixation>+</div></div>,none,500,test,,,,,,,,,,,912,82,poldrack-categorize,232,420685,0.0-232.0,b113efca-e0d2-4438-a759-0f5291a47594,,1500,250,stim,,"<div class = centerbox><div class = stroop-stim style = ""color:red"">RED</div></div>","66,71,82",1500,test,TRUE,82,500,congruent,red,red,,,,,-1,-1,poldrack-single-stim,233,421445,0.0-233.0,b113efca-e0d2-4438-a759-0f5291a47594,,500,500,fixation,,<div class = centerbox><div class = fixation>+</div></div>,none,500,test,,,,,,,,,,,869,66,poldrack-categorize,234,423955,0.0-234.0,b113efca-e0d2-4438-a759-0f5291a47594,,1500,250,stim,,"<div class = centerbox><div class = stroop-stim style = ""color:blue"">GREEN</div></div>","66,71,82",1500,test,TRUE,66,500,incongruent,blue,green,,,,,-1,-1,poldrack-single-stim,235,424713,0.0-235.0,b113efca-e0d2-4438-a759-0f5291a47594,,500,500,fixation,,<div class = centerbox><div class = fixation>+</div></div>,none,500,test,,,,,,,,,,,905,71,poldrack-categorize,236,427226,0.0-236.0,b113efca-e0d2-4438-a759-0f5291a47594,,1500,250,stim,,"<div class = centerbox><div class = stroop-stim style = ""color:green"">GREEN</div></div>","66,71,82",1500,test,TRUE,71,500,congruent,green,green,,,,,-1,-1,poldrack-single-stim,237,427987,0.0-237.0,b113efca-e0d2-4438-a759-0f5291a47594,,500,500,fixation,,<div class = centerbox><div class = fixation>+</div></div>,none,500,test,,,,,,,,,,,792,82,poldrack-categorize,238,430500,0.0-238.0,b113efca-e0d2-4438-a759-0f5291a47594,,1500,250,stim,,"<div class = centerbox><div class = stroop-stim style = ""color:red"">BLUE</div></div>","66,71,82",1500,test,TRUE,82,500,incongruent,red,blue,,,,,-1,-1,poldrack-single-stim,239,431261,0.0-239.0,b113efca-e0d2-4438-a759-0f5291a47594,,500,500,fixation,,<div class = centerbox><div class = fixation>+</div></div>,none,500,test,,,,,,,,,,,822,82,poldrack-categorize,240,433774,0.0-240.0,b113efca-e0d2-4438-a759-0f5291a47594,,1500,250,stim,,"<div class = centerbox><div class = stroop-stim style = ""color:red"">RED</div></div>","66,71,82",1500,test,TRUE,82,500,congruent,red,red,,,,,-1,-1,poldrack-single-stim,241,434535,0.0-241.0,b113efca-e0d2-4438-a759-0f5291a47594,,500,500,fixation,,<div class = centerbox><div class = fixation>+</div></div>,none,500,test,,,,,,,,,,,516,82,poldrack-categorize,242,437048,0.0-242.0,b113efca-e0d2-4438-a759-0f5291a47594,,1500,250,stim,,"<div class = centerbox><div class = stroop-stim style = ""color:red"">BLUE</div></div>","66,71,82",1500,test,TRUE,82,500,incongruent,red,blue,,,,,-1,-1,poldrack-single-stim,243,437809,0.0-243.0,b113efca-e0d2-4438-a759-0f5291a47594,,500,500,fixation,,<div class = centerbox><div class = fixation>+</div></div>,none,500,test,,,,,,,,,,,1083,66,poldrack-categorize,244,440322,0.0-244.0,b113efca-e0d2-4438-a759-0f5291a47594,,1500,250,stim,,"<div class = centerbox><div class = stroop-stim style = ""color:blue"">GREEN</div></div>","66,71,82",1500,test,TRUE,66,500,incongruent,blue,green,,,,,82272,,survey-text,245,522854,0.0-246.0,b113efca-e0d2-4438-a759-0f5291a47594,,,,post task questions,,,,,,,,,,,,"{""Q0"":""Click the button that corresponded with the ink of the word displayed. "",""Q1"":""""}",,,,2237,13,poldrack-text,246,526094,0.0-247.0,b113efca-e0d2-4438-a759-0f5291a47594,<div class = centerbox><p class = center-block-text>Thanks for completing this task!</p><p class = center-block-text>Press <strong>enter</strong> to continue.</p></div>,2237,0,end,,,,,,,,,,,,,stroop,TRUE,,939,13,poldrack-text,247,527070,0.0-248.0-0.0,b113efca-e0d2-4438-a759-0f5291a47594,<div class = centerbox><p class = center-block-text>Done with instructions. Press <strong>enter</strong> to continue.</p></div>,939,0,instruction,,,,,,,,,,,,,,,,