rt,key_press,trial_type,trial_index,time_elapsed,internal_node_id,subject,text,block_duration,timing_post_trial,trial_id,view_history,stimulus,possible_responses,stim_duration,exp_stage,correct,correct_response,feedback_duration,condition,stim_color,stim_word,responses,exp_id,credit_var,stim_place,stim_id3131,13,text,0,3133,0.0-0.0,7372c97a-e626-4256-a44d-01b580af5c11,,,,,,,,,,,,,,,,,,,,3361,13,poldrack-text,1,7497,0.0-1.0-0.0,7372c97a-e626-4256-a44d-01b580af5c11,<div class = centerbox><p class = center-block-text>Welcome to the experiment. This experiment will take about 8 minutes. Press <strong>enter</strong> to begin.</p></div>,3361,0,instruction,,,,,,,,,,,,,,,,36848,,poldrack-instructions,2,44347,0.0-1.0-1.0,7372c97a-e626-4256-a44d-01b580af5c11,,,,instruction,"[{""page_index"":0,""viewing_time"":36848}]",,,,,,,,,,,,,,,2600,13,poldrack-text,3,47953,0.0-2.0,7372c97a-e626-4256-a44d-01b580af5c11,"<div class = centerbox><p class = block-text>We will start with a few practice trials. Remember, press the key corresponding to the <strong>ink</strong> color of the word: ""r"" for words colored red, ""b"" for words colored blue, and ""g"" for words colored green.</p><p class = block-text>Press <strong>enter</strong> to begin practice.</p></div>",2600,1000,practice_intro,,,,,,,,,,,,,,,,-1,-1,poldrack-single-stim,4,49463,0.0-3.0,7372c97a-e626-4256-a44d-01b580af5c11,,500,500,fixation,,<div class = centerbox><div class = fixation>+</div></div>,none,500,practice,,,,,,,,,,,1194,82,poldrack-categorize,5,51972,0.0-4.0,7372c97a-e626-4256-a44d-01b580af5c11,,1500,250,stim,,"<div class = centerbox><div class = stroop-stim style = ""color:red"">GREEN</div></div>","66,71,82",1500,practice,TRUE,82,500,incongruent,red,green,,,,,-1,-1,poldrack-single-stim,6,52729,0.0-5.0,7372c97a-e626-4256-a44d-01b580af5c11,,500,500,fixation,,<div class = centerbox><div class = fixation>+</div></div>,none,500,practice,,,,,,,,,,,1461,66,poldrack-categorize,7,55243,0.0-6.0,7372c97a-e626-4256-a44d-01b580af5c11,,1500,250,stim,,"<div class = centerbox><div class = stroop-stim style = ""color:blue"">RED</div></div>","66,71,82",1500,practice,TRUE,66,500,incongruent,blue,red,,,,,-1,-1,poldrack-single-stim,8,56004,0.0-7.0,7372c97a-e626-4256-a44d-01b580af5c11,,500,500,fixation,,<div class = centerbox><div class = fixation>+</div></div>,none,500,practice,,,,,,,,,,,1021,66,poldrack-categorize,9,58517,0.0-8.0,7372c97a-e626-4256-a44d-01b580af5c11,,1500,250,stim,,"<div class = centerbox><div class = stroop-stim style = ""color:blue"">BLUE</div></div>","66,71,82",1500,practice,TRUE,66,500,congruent,blue,blue,,,,,-1,-1,poldrack-single-stim,10,59278,0.0-9.0,7372c97a-e626-4256-a44d-01b580af5c11,,500,500,fixation,,<div class = centerbox><div class = fixation>+</div></div>,none,500,practice,,,,,,,,,,,532,71,poldrack-categorize,11,61785,0.0-10.0,7372c97a-e626-4256-a44d-01b580af5c11,,1500,250,stim,,"<div class = centerbox><div class = stroop-stim style = ""color:green"">BLUE</div></div>","66,71,82",1500,practice,TRUE,71,500,incongruent,green,blue,,,,,-1,-1,poldrack-single-stim,12,62546,0.0-11.0,7372c97a-e626-4256-a44d-01b580af5c11,,500,500,fixation,,<div class = centerbox><div class = fixation>+</div></div>,none,500,practice,,,,,,,,,,,589,71,poldrack-categorize,13,65059,0.0-12.0,7372c97a-e626-4256-a44d-01b580af5c11,,1500,250,stim,,"<div class = centerbox><div class = stroop-stim style = ""color:green"">GREEN</div></div>","66,71,82",1500,practice,TRUE,71,500,congruent,green,green,,,,,-1,-1,poldrack-single-stim,14,65817,0.0-13.0,7372c97a-e626-4256-a44d-01b580af5c11,,500,500,fixation,,<div class = centerbox><div class = fixation>+</div></div>,none,500,practice,,,,,,,,,,,617,66,poldrack-categorize,15,68323,0.0-14.0,7372c97a-e626-4256-a44d-01b580af5c11,,1500,250,stim,,"<div class = centerbox><div class = stroop-stim style = ""color:blue"">GREEN</div></div>","66,71,82",1500,practice,TRUE,66,500,incongruent,blue,green,,,,,-1,-1,poldrack-single-stim,16,69082,0.0-15.0,7372c97a-e626-4256-a44d-01b580af5c11,,500,500,fixation,,<div class = centerbox><div class = fixation>+</div></div>,none,500,practice,,,,,,,,,,,653,66,poldrack-categorize,17,71595,0.0-16.0,7372c97a-e626-4256-a44d-01b580af5c11,,1500,250,stim,,"<div class = centerbox><div class = stroop-stim style = ""color:blue"">BLUE</div></div>","66,71,82",1500,practice,TRUE,66,500,congruent,blue,blue,,,,,-1,-1,poldrack-single-stim,18,72352,0.0-17.0,7372c97a-e626-4256-a44d-01b580af5c11,,500,500,fixation,,<div class = centerbox><div class = fixation>+</div></div>,none,500,practice,,,,,,,,,,,685,82,poldrack-categorize,19,74863,0.0-18.0,7372c97a-e626-4256-a44d-01b580af5c11,,1500,250,stim,,"<div class = centerbox><div class = stroop-stim style = ""color:red"">RED</div></div>","66,71,82",1500,practice,TRUE,82,500,congruent,red,red,,,,,-1,-1,poldrack-single-stim,20,75623,0.0-19.0,7372c97a-e626-4256-a44d-01b580af5c11,,500,500,fixation,,<div class = centerbox><div class = fixation>+</div></div>,none,500,practice,,,,,,,,,,,990,71,poldrack-categorize,21,78136,0.0-20.0,7372c97a-e626-4256-a44d-01b580af5c11,,1500,250,stim,,"<div class = centerbox><div class = stroop-stim style = ""color:green"">GREEN</div></div>","66,71,82",1500,practice,TRUE,71,500,congruent,green,green,,,,,-1,-1,poldrack-single-stim,22,78897,0.0-21.0,7372c97a-e626-4256-a44d-01b580af5c11,,500,500,fixation,,<div class = centerbox><div class = fixation>+</div></div>,none,500,practice,,,,,,,,,,,900,82,poldrack-categorize,23,81410,0.0-22.0,7372c97a-e626-4256-a44d-01b580af5c11,,1500,250,stim,,"<div class = centerbox><div class = stroop-stim style = ""color:red"">RED</div></div>","66,71,82",1500,practice,TRUE,82,500,congruent,red,red,,,,,-1,-1,poldrack-single-stim,24,82171,0.0-23.0,7372c97a-e626-4256-a44d-01b580af5c11,,500,500,fixation,,<div class = centerbox><div class = fixation>+</div></div>,none,500,practice,,,,,,,,,,,873,82,poldrack-categorize,25,84683,0.0-24.0,7372c97a-e626-4256-a44d-01b580af5c11,,1500,250,stim,,"<div class = centerbox><div class = stroop-stim style = ""color:red"">BLUE</div></div>","66,71,82",1500,practice,TRUE,82,500,incongruent,red,blue,,,,,-1,-1,poldrack-single-stim,26,85439,0.0-25.0,7372c97a-e626-4256-a44d-01b580af5c11,,500,500,fixation,,<div class = centerbox><div class = fixation>+</div></div>,none,500,practice,,,,,,,,,,,717,71,poldrack-categorize,27,87952,0.0-26.0,7372c97a-e626-4256-a44d-01b580af5c11,,1500,250,stim,,"<div class = centerbox><div class = stroop-stim style = ""color:green"">RED</div></div>","66,71,82",1500,practice,TRUE,71,500,incongruent,green,red,,,,,-1,-1,poldrack-single-stim,28,88713,0.0-27.0,7372c97a-e626-4256-a44d-01b580af5c11,,500,500,fixation,,<div class = centerbox><div class = fixation>+</div></div>,none,500,practice,,,,,,,,,,,733,82,poldrack-categorize,29,91226,0.0-28.0,7372c97a-e626-4256-a44d-01b580af5c11,,1500,250,stim,,"<div class = centerbox><div class = stroop-stim style = ""color:red"">GREEN</div></div>","66,71,82",1500,practice,TRUE,82,500,incongruent,red,green,,,,,-1,-1,poldrack-single-stim,30,91987,0.0-29.0,7372c97a-e626-4256-a44d-01b580af5c11,,500,500,fixation,,<div class = centerbox><div class = fixation>+</div></div>,none,500,practice,,,,,,,,,,,626,82,poldrack-categorize,31,94500,0.0-30.0,7372c97a-e626-4256-a44d-01b580af5c11,,1500,250,stim,,"<div class = centerbox><div class = stroop-stim style = ""color:red"">RED</div></div>","66,71,82",1500,practice,TRUE,82,500,congruent,red,red,,,,,-1,-1,poldrack-single-stim,32,95259,0.0-31.0,7372c97a-e626-4256-a44d-01b580af5c11,,500,500,fixation,,<div class = centerbox><div class = fixation>+</div></div>,none,500,practice,,,,,,,,,,,718,82,poldrack-categorize,33,97768,0.0-32.0,7372c97a-e626-4256-a44d-01b580af5c11,,1500,250,stim,,"<div class = centerbox><div class = stroop-stim style = ""color:red"">BLUE</div></div>","66,71,82",1500,practice,TRUE,82,500,incongruent,red,blue,,,,,-1,-1,poldrack-single-stim,34,98528,0.0-33.0,7372c97a-e626-4256-a44d-01b580af5c11,,500,500,fixation,,<div class = centerbox><div class = fixation>+</div></div>,none,500,practice,,,,,,,,,,,660,71,poldrack-categorize,35,101042,0.0-34.0,7372c97a-e626-4256-a44d-01b580af5c11,,1500,250,stim,,"<div class = centerbox><div class = stroop-stim style = ""color:green"">RED</div></div>","66,71,82",1500,practice,TRUE,71,500,incongruent,green,red,,,,,-1,-1,poldrack-single-stim,36,101802,0.0-35.0,7372c97a-e626-4256-a44d-01b580af5c11,,500,500,fixation,,<div class = centerbox><div class = fixation>+</div></div>,none,500,practice,,,,,,,,,,,730,66,poldrack-categorize,37,104315,0.0-36.0,7372c97a-e626-4256-a44d-01b580af5c11,,1500,250,stim,,"<div class = centerbox><div class = stroop-stim style = ""color:blue"">BLUE</div></div>","66,71,82",1500,practice,TRUE,66,500,congruent,blue,blue,,,,,-1,-1,poldrack-single-stim,38,105076,0.0-37.0,7372c97a-e626-4256-a44d-01b580af5c11,,500,500,fixation,,<div class = centerbox><div class = fixation>+</div></div>,none,500,practice,,,,,,,,,,,562,82,poldrack-categorize,39,107583,0.0-38.0,7372c97a-e626-4256-a44d-01b580af5c11,,1500,250,stim,,"<div class = centerbox><div class = stroop-stim style = ""color:red"">RED</div></div>","66,71,82",1500,practice,TRUE,82,500,congruent,red,red,,,,,-1,-1,poldrack-single-stim,40,108344,0.0-39.0,7372c97a-e626-4256-a44d-01b580af5c11,,500,500,fixation,,<div class = centerbox><div class = fixation>+</div></div>,none,500,practice,,,,,,,,,,,651,71,poldrack-categorize,41,110857,0.0-40.0,7372c97a-e626-4256-a44d-01b580af5c11,,1500,250,stim,,"<div class = centerbox><div class = stroop-stim style = ""color:green"">BLUE</div></div>","66,71,82",1500,practice,TRUE,71,500,incongruent,green,blue,,,,,-1,-1,poldrack-single-stim,42,111618,0.0-41.0,7372c97a-e626-4256-a44d-01b580af5c11,,500,500,fixation,,<div class = centerbox><div class = fixation>+</div></div>,none,500,practice,,,,,,,,,,,594,66,poldrack-categorize,43,114128,0.0-42.0,7372c97a-e626-4256-a44d-01b580af5c11,,1500,250,stim,,"<div class = centerbox><div class = stroop-stim style = ""color:blue"">RED</div></div>","66,71,82",1500,practice,TRUE,66,500,incongruent,blue,red,,,,,-1,-1,poldrack-single-stim,44,114888,0.0-43.0,7372c97a-e626-4256-a44d-01b580af5c11,,500,500,fixation,,<div class = centerbox><div class = fixation>+</div></div>,none,500,practice,,,,,,,,,,,459,66,poldrack-categorize,45,117399,0.0-44.0,7372c97a-e626-4256-a44d-01b580af5c11,,1500,250,stim,,"<div class = centerbox><div class = stroop-stim style = ""color:blue"">BLUE</div></div>","66,71,82",1500,practice,TRUE,66,500,congruent,blue,blue,,,,,-1,-1,poldrack-single-stim,46,118160,0.0-45.0,7372c97a-e626-4256-a44d-01b580af5c11,,500,500,fixation,,<div class = centerbox><div class = fixation>+</div></div>,none,500,practice,,,,,,,,,,,1003,66,poldrack-categorize,47,120673,0.0-46.0,7372c97a-e626-4256-a44d-01b580af5c11,,1500,250,stim,,"<div class = centerbox><div class = stroop-stim style = ""color:blue"">GREEN</div></div>","66,71,82",1500,practice,TRUE,66,500,incongruent,blue,green,,,,,-1,-1,poldrack-single-stim,48,121433,0.0-47.0,7372c97a-e626-4256-a44d-01b580af5c11,,500,500,fixation,,<div class = centerbox><div class = fixation>+</div></div>,none,500,practice,,,,,,,,,,,665,71,poldrack-categorize,49,123947,0.0-48.0,7372c97a-e626-4256-a44d-01b580af5c11,,1500,250,stim,,"<div class = centerbox><div class = stroop-stim style = ""color:green"">GREEN</div></div>","66,71,82",1500,practice,TRUE,71,500,congruent,green,green,,,,,-1,-1,poldrack-single-stim,50,124707,0.0-49.0,7372c97a-e626-4256-a44d-01b580af5c11,,500,500,fixation,,<div class = centerbox><div class = fixation>+</div></div>,none,500,practice,,,,,,,,,,,679,71,poldrack-categorize,51,127217,0.0-50.0,7372c97a-e626-4256-a44d-01b580af5c11,,1500,250,stim,,"<div class = centerbox><div class = stroop-stim style = ""color:green"">GREEN</div></div>","66,71,82",1500,practice,TRUE,71,500,congruent,green,green,,,,,5710,13,poldrack-text,52,133179,0.0-52.0,7372c97a-e626-4256-a44d-01b580af5c11,<div class = centerbox><p class = center-block-text>We will now start the test. Respond exactly like you did during practice.</p><p class = center-block-text>Press <strong>enter</strong> to begin the test.</p></div>,5710,1000,test_intro,,,,,,,,,,,,,,,,-1,-1,poldrack-single-stim,53,134685,0.0-53.0,7372c97a-e626-4256-a44d-01b580af5c11,,500,500,fixation,,<div class = centerbox><div class = fixation>+</div></div>,none,500,test,,,,,,,,,,,552,82,poldrack-categorize,54,137193,0.0-54.0,7372c97a-e626-4256-a44d-01b580af5c11,,1500,250,stim,,"<div class = centerbox><div class = stroop-stim style = ""color:red"">RED</div></div>","66,71,82",1500,test,TRUE,82,500,congruent,red,red,,,,,-1,-1,poldrack-single-stim,55,137953,0.0-55.0,7372c97a-e626-4256-a44d-01b580af5c11,,500,500,fixation,,<div class = centerbox><div class = fixation>+</div></div>,none,500,test,,,,,,,,,,,968,71,poldrack-categorize,56,140467,0.0-56.0,7372c97a-e626-4256-a44d-01b580af5c11,,1500,250,stim,,"<div class = centerbox><div class = stroop-stim style = ""color:green"">BLUE</div></div>","66,71,82",1500,test,TRUE,71,500,incongruent,green,blue,,,,,-1,-1,poldrack-single-stim,57,141225,0.0-57.0,7372c97a-e626-4256-a44d-01b580af5c11,,500,500,fixation,,<div class = centerbox><div class = fixation>+</div></div>,none,500,test,,,,,,,,,,,619,66,poldrack-categorize,58,143735,0.0-58.0,7372c97a-e626-4256-a44d-01b580af5c11,,1500,250,stim,,"<div class = centerbox><div class = stroop-stim style = ""color:blue"">BLUE</div></div>","66,71,82",1500,test,TRUE,66,500,congruent,blue,blue,,,,,-1,-1,poldrack-single-stim,59,144495,0.0-59.0,7372c97a-e626-4256-a44d-01b580af5c11,,500,500,fixation,,<div class = centerbox><div class = fixation>+</div></div>,none,500,test,,,,,,,,,,,514,82,poldrack-categorize,60,147008,0.0-60.0,7372c97a-e626-4256-a44d-01b580af5c11,,1500,250,stim,,"<div class = centerbox><div class = stroop-stim style = ""color:red"">RED</div></div>","66,71,82",1500,test,TRUE,82,500,congruent,red,red,,,,,-1,-1,poldrack-single-stim,61,147769,0.0-61.0,7372c97a-e626-4256-a44d-01b580af5c11,,500,500,fixation,,<div class = centerbox><div class = fixation>+</div></div>,none,500,test,,,,,,,,,,,751,66,poldrack-categorize,62,150282,0.0-62.0,7372c97a-e626-4256-a44d-01b580af5c11,,1500,250,stim,,"<div class = centerbox><div class = stroop-stim style = ""color:blue"">GREEN</div></div>","66,71,82",1500,test,TRUE,66,500,incongruent,blue,green,,,,,-1,-1,poldrack-single-stim,63,151043,0.0-63.0,7372c97a-e626-4256-a44d-01b580af5c11,,500,500,fixation,,<div class = centerbox><div class = fixation>+</div></div>,none,500,test,,,,,,,,,,,559,71,poldrack-categorize,64,153556,0.0-64.0,7372c97a-e626-4256-a44d-01b580af5c11,,1500,250,stim,,"<div class = centerbox><div class = stroop-stim style = ""color:green"">BLUE</div></div>","66,71,82",1500,test,TRUE,71,500,incongruent,green,blue,,,,,-1,-1,poldrack-single-stim,65,154316,0.0-65.0,7372c97a-e626-4256-a44d-01b580af5c11,,500,500,fixation,,<div class = centerbox><div class = fixation>+</div></div>,none,500,test,,,,,,,,,,,556,71,poldrack-categorize,66,156830,0.0-66.0,7372c97a-e626-4256-a44d-01b580af5c11,,1500,250,stim,,"<div class = centerbox><div class = stroop-stim style = ""color:green"">RED</div></div>","66,71,82",1500,test,TRUE,71,500,incongruent,green,red,,,,,-1,-1,poldrack-single-stim,67,157590,0.0-67.0,7372c97a-e626-4256-a44d-01b580af5c11,,500,500,fixation,,<div class = centerbox><div class = fixation>+</div></div>,none,500,test,,,,,,,,,,,546,66,poldrack-categorize,68,160104,0.0-68.0,7372c97a-e626-4256-a44d-01b580af5c11,,1500,250,stim,,"<div class = centerbox><div class = stroop-stim style = ""color:blue"">BLUE</div></div>","66,71,82",1500,test,TRUE,66,500,congruent,blue,blue,,,,,-1,-1,poldrack-single-stim,69,160864,0.0-69.0,7372c97a-e626-4256-a44d-01b580af5c11,,500,500,fixation,,<div class = centerbox><div class = fixation>+</div></div>,none,500,test,,,,,,,,,,,730,82,poldrack-categorize,70,163377,0.0-70.0,7372c97a-e626-4256-a44d-01b580af5c11,,1500,250,stim,,"<div class = centerbox><div class = stroop-stim style = ""color:red"">BLUE</div></div>","66,71,82",1500,test,TRUE,82,500,incongruent,red,blue,,,,,-1,-1,poldrack-single-stim,71,164138,0.0-71.0,7372c97a-e626-4256-a44d-01b580af5c11,,500,500,fixation,,<div class = centerbox><div class = fixation>+</div></div>,none,500,test,,,,,,,,,,,646,82,poldrack-categorize,72,166651,0.0-72.0,7372c97a-e626-4256-a44d-01b580af5c11,,1500,250,stim,,"<div class = centerbox><div class = stroop-stim style = ""color:red"">GREEN</div></div>","66,71,82",1500,test,TRUE,82,500,incongruent,red,green,,,,,-1,-1,poldrack-single-stim,73,167412,0.0-73.0,7372c97a-e626-4256-a44d-01b580af5c11,,500,500,fixation,,<div class = centerbox><div class = fixation>+</div></div>,none,500,test,,,,,,,,,,,676,66,poldrack-categorize,74,169925,0.0-74.0,7372c97a-e626-4256-a44d-01b580af5c11,,1500,250,stim,,"<div class = centerbox><div class = stroop-stim style = ""color:blue"">BLUE</div></div>","66,71,82",1500,test,TRUE,66,500,congruent,blue,blue,,,,,-1,-1,poldrack-single-stim,75,170686,0.0-75.0,7372c97a-e626-4256-a44d-01b580af5c11,,500,500,fixation,,<div class = centerbox><div class = fixation>+</div></div>,none,500,test,,,,,,,,,,,706,71,poldrack-categorize,76,173199,0.0-76.0,7372c97a-e626-4256-a44d-01b580af5c11,,1500,250,stim,,"<div class = centerbox><div class = stroop-stim style = ""color:green"">GREEN</div></div>","66,71,82",1500,test,TRUE,71,500,congruent,green,green,,,,,-1,-1,poldrack-single-stim,77,173959,0.0-77.0,7372c97a-e626-4256-a44d-01b580af5c11,,500,500,fixation,,<div class = centerbox><div class = fixation>+</div></div>,none,500,test,,,,,,,,,,,448,71,poldrack-categorize,78,176473,0.0-78.0,7372c97a-e626-4256-a44d-01b580af5c11,,1500,250,stim,,"<div class = centerbox><div class = stroop-stim style = ""color:green"">GREEN</div></div>","66,71,82",1500,test,TRUE,71,500,congruent,green,green,,,,,-1,-1,poldrack-single-stim,79,177227,0.0-79.0,7372c97a-e626-4256-a44d-01b580af5c11,,500,500,fixation,,<div class = centerbox><div class = fixation>+</div></div>,none,500,test,,,,,,,,,,,708,66,poldrack-categorize,80,179739,0.0-80.0,7372c97a-e626-4256-a44d-01b580af5c11,,1500,250,stim,,"<div class = centerbox><div class = stroop-stim style = ""color:blue"">RED</div></div>","66,71,82",1500,test,TRUE,66,500,incongruent,blue,red,,,,,-1,-1,poldrack-single-stim,81,180495,0.0-81.0,7372c97a-e626-4256-a44d-01b580af5c11,,500,500,fixation,,<div class = centerbox><div class = fixation>+</div></div>,none,500,test,,,,,,,,,,,583,66,poldrack-categorize,82,183009,0.0-82.0,7372c97a-e626-4256-a44d-01b580af5c11,,1500,250,stim,,"<div class = centerbox><div class = stroop-stim style = ""color:blue"">BLUE</div></div>","66,71,82",1500,test,TRUE,66,500,congruent,blue,blue,,,,,-1,-1,poldrack-single-stim,83,183769,0.0-83.0,7372c97a-e626-4256-a44d-01b580af5c11,,500,500,fixation,,<div class = centerbox><div class = fixation>+</div></div>,none,500,test,,,,,,,,,,,637,71,poldrack-categorize,84,186282,0.0-84.0,7372c97a-e626-4256-a44d-01b580af5c11,,1500,250,stim,,"<div class = centerbox><div class = stroop-stim style = ""color:green"">BLUE</div></div>","66,71,82",1500,test,TRUE,71,500,incongruent,green,blue,,,,,-1,-1,poldrack-single-stim,85,187040,0.0-85.0,7372c97a-e626-4256-a44d-01b580af5c11,,500,500,fixation,,<div class = centerbox><div class = fixation>+</div></div>,none,500,test,,,,,,,,,,,761,82,poldrack-categorize,86,189550,0.0-86.0,7372c97a-e626-4256-a44d-01b580af5c11,,1500,250,stim,,"<div class = centerbox><div class = stroop-stim style = ""color:red"">BLUE</div></div>","66,71,82",1500,test,TRUE,82,500,incongruent,red,blue,,,,,-1,-1,poldrack-single-stim,87,190311,0.0-87.0,7372c97a-e626-4256-a44d-01b580af5c11,,500,500,fixation,,<div class = centerbox><div class = fixation>+</div></div>,none,500,test,,,,,,,,,,,607,82,poldrack-categorize,88,192824,0.0-88.0,7372c97a-e626-4256-a44d-01b580af5c11,,1500,250,stim,,"<div class = centerbox><div class = stroop-stim style = ""color:red"">BLUE</div></div>","66,71,82",1500,test,TRUE,82,500,incongruent,red,blue,,,,,-1,-1,poldrack-single-stim,89,193585,0.0-89.0,7372c97a-e626-4256-a44d-01b580af5c11,,500,500,fixation,,<div class = centerbox><div class = fixation>+</div></div>,none,500,test,,,,,,,,,,,558,82,poldrack-categorize,90,196098,0.0-90.0,7372c97a-e626-4256-a44d-01b580af5c11,,1500,250,stim,,"<div class = centerbox><div class = stroop-stim style = ""color:red"">RED</div></div>","66,71,82",1500,test,TRUE,82,500,congruent,red,red,,,,,-1,-1,poldrack-single-stim,91,196859,0.0-91.0,7372c97a-e626-4256-a44d-01b580af5c11,,500,500,fixation,,<div class = centerbox><div class = fixation>+</div></div>,none,500,test,,,,,,,,,,,891,71,poldrack-categorize,92,199372,0.0-92.0,7372c97a-e626-4256-a44d-01b580af5c11,,1500,250,stim,,"<div class = centerbox><div class = stroop-stim style = ""color:green"">GREEN</div></div>","66,71,82",1500,test,TRUE,71,500,congruent,green,green,,,,,-1,-1,poldrack-single-stim,93,200132,0.0-93.0,7372c97a-e626-4256-a44d-01b580af5c11,,500,500,fixation,,<div class = centerbox><div class = fixation>+</div></div>,none,500,test,,,,,,,,,,,609,82,poldrack-categorize,94,202646,0.0-94.0,7372c97a-e626-4256-a44d-01b580af5c11,,1500,250,stim,,"<div class = centerbox><div class = stroop-stim style = ""color:red"">RED</div></div>","66,71,82",1500,test,TRUE,82,500,congruent,red,red,,,,,-1,-1,poldrack-single-stim,95,203403,0.0-95.0,7372c97a-e626-4256-a44d-01b580af5c11,,500,500,fixation,,<div class = centerbox><div class = fixation>+</div></div>,none,500,test,,,,,,,,,,,506,82,poldrack-categorize,96,205913,0.0-96.0,7372c97a-e626-4256-a44d-01b580af5c11,,1500,250,stim,,"<div class = centerbox><div class = stroop-stim style = ""color:red"">RED</div></div>","66,71,82",1500,test,TRUE,82,500,congruent,red,red,,,,,-1,-1,poldrack-single-stim,97,206668,0.0-97.0,7372c97a-e626-4256-a44d-01b580af5c11,,500,500,fixation,,<div class = centerbox><div class = fixation>+</div></div>,none,500,test,,,,,,,,,,,609,82,poldrack-categorize,98,209176,0.0-98.0,7372c97a-e626-4256-a44d-01b580af5c11,,1500,250,stim,,"<div class = centerbox><div class = stroop-stim style = ""color:red"">RED</div></div>","66,71,82",1500,test,TRUE,82,500,congruent,red,red,,,,,-1,-1,poldrack-single-stim,99,209936,0.0-99.0,7372c97a-e626-4256-a44d-01b580af5c11,,500,500,fixation,,<div class = centerbox><div class = fixation>+</div></div>,none,500,test,,,,,,,,,,,524,66,poldrack-categorize,100,212450,0.0-100.0,7372c97a-e626-4256-a44d-01b580af5c11,,1500,250,stim,,"<div class = centerbox><div class = stroop-stim style = ""color:blue"">BLUE</div></div>","66,71,82",1500,test,TRUE,66,500,congruent,blue,blue,,,,,-1,-1,poldrack-single-stim,101,213205,0.0-101.0,7372c97a-e626-4256-a44d-01b580af5c11,,500,500,fixation,,<div class = centerbox><div class = fixation>+</div></div>,none,500,test,,,,,,,,,,,560,71,poldrack-categorize,102,215718,0.0-102.0,7372c97a-e626-4256-a44d-01b580af5c11,,1500,250,stim,,"<div class = centerbox><div class = stroop-stim style = ""color:green"">GREEN</div></div>","66,71,82",1500,test,TRUE,71,500,congruent,green,green,,,,,-1,-1,poldrack-single-stim,103,216478,0.0-103.0,7372c97a-e626-4256-a44d-01b580af5c11,,500,500,fixation,,<div class = centerbox><div class = fixation>+</div></div>,none,500,test,,,,,,,,,,,518,71,poldrack-categorize,104,218991,0.0-104.0,7372c97a-e626-4256-a44d-01b580af5c11,,1500,250,stim,,"<div class = centerbox><div class = stroop-stim style = ""color:green"">RED</div></div>","66,71,82",1500,test,TRUE,71,500,incongruent,green,red,,,,,-1,-1,poldrack-single-stim,105,219753,0.0-105.0,7372c97a-e626-4256-a44d-01b580af5c11,,500,500,fixation,,<div class = centerbox><div class = fixation>+</div></div>,none,500,test,,,,,,,,,,,589,71,poldrack-categorize,106,222265,0.0-106.0,7372c97a-e626-4256-a44d-01b580af5c11,,1500,250,stim,,"<div class = centerbox><div class = stroop-stim style = ""color:green"">GREEN</div></div>","66,71,82",1500,test,TRUE,71,500,congruent,green,green,,,,,-1,-1,poldrack-single-stim,107,223020,0.0-107.0,7372c97a-e626-4256-a44d-01b580af5c11,,500,500,fixation,,<div class = centerbox><div class = fixation>+</div></div>,none,500,test,,,,,,,,,,,728,82,poldrack-categorize,108,225527,0.0-108.0,7372c97a-e626-4256-a44d-01b580af5c11,,1500,250,stim,,"<div class = centerbox><div class = stroop-stim style = ""color:red"">BLUE</div></div>","66,71,82",1500,test,TRUE,82,500,incongruent,red,blue,,,,,-1,-1,poldrack-single-stim,109,226288,0.0-109.0,7372c97a-e626-4256-a44d-01b580af5c11,,500,500,fixation,,<div class = centerbox><div class = fixation>+</div></div>,none,500,test,,,,,,,,,,,748,82,poldrack-categorize,110,228801,0.0-110.0,7372c97a-e626-4256-a44d-01b580af5c11,,1500,250,stim,,"<div class = centerbox><div class = stroop-stim style = ""color:red"">BLUE</div></div>","66,71,82",1500,test,TRUE,82,500,incongruent,red,blue,,,,,-1,-1,poldrack-single-stim,111,229562,0.0-111.0,7372c97a-e626-4256-a44d-01b580af5c11,,500,500,fixation,,<div class = centerbox><div class = fixation>+</div></div>,none,500,test,,,,,,,,,,,737,66,poldrack-categorize,112,232075,0.0-112.0,7372c97a-e626-4256-a44d-01b580af5c11,,1500,250,stim,,"<div class = centerbox><div class = stroop-stim style = ""color:blue"">BLUE</div></div>","66,71,82",1500,test,TRUE,66,500,congruent,blue,blue,,,,,-1,-1,poldrack-single-stim,113,232835,0.0-113.0,7372c97a-e626-4256-a44d-01b580af5c11,,500,500,fixation,,<div class = centerbox><div class = fixation>+</div></div>,none,500,test,,,,,,,,,,,664,82,poldrack-categorize,114,235349,0.0-114.0,7372c97a-e626-4256-a44d-01b580af5c11,,1500,250,stim,,"<div class = centerbox><div class = stroop-stim style = ""color:red"">BLUE</div></div>","66,71,82",1500,test,TRUE,82,500,incongruent,red,blue,,,,,-1,-1,poldrack-single-stim,115,236109,0.0-115.0,7372c97a-e626-4256-a44d-01b580af5c11,,500,500,fixation,,<div class = centerbox><div class = fixation>+</div></div>,none,500,test,,,,,,,,,,,598,71,poldrack-categorize,116,238623,0.0-116.0,7372c97a-e626-4256-a44d-01b580af5c11,,1500,250,stim,,"<div class = centerbox><div class = stroop-stim style = ""color:green"">GREEN</div></div>","66,71,82",1500,test,TRUE,71,500,congruent,green,green,,,,,-1,-1,poldrack-single-stim,117,239383,0.0-117.0,7372c97a-e626-4256-a44d-01b580af5c11,,500,500,fixation,,<div class = centerbox><div class = fixation>+</div></div>,none,500,test,,,,,,,,,,,572,82,poldrack-categorize,118,241896,0.0-118.0,7372c97a-e626-4256-a44d-01b580af5c11,,1500,250,stim,,"<div class = centerbox><div class = stroop-stim style = ""color:red"">RED</div></div>","66,71,82",1500,test,TRUE,82,500,congruent,red,red,,,,,-1,-1,poldrack-single-stim,119,242657,0.0-119.0,7372c97a-e626-4256-a44d-01b580af5c11,,500,500,fixation,,<div class = centerbox><div class = fixation>+</div></div>,none,500,test,,,,,,,,,,,922,82,poldrack-categorize,120,245164,0.0-120.0,7372c97a-e626-4256-a44d-01b580af5c11,,1500,250,stim,,"<div class = centerbox><div class = stroop-stim style = ""color:red"">RED</div></div>","66,71,82",1500,test,TRUE,82,500,congruent,red,red,,,,,-1,-1,poldrack-single-stim,121,245925,0.0-121.0,7372c97a-e626-4256-a44d-01b580af5c11,,500,500,fixation,,<div class = centerbox><div class = fixation>+</div></div>,none,500,test,,,,,,,,,,,613,82,poldrack-categorize,122,248437,0.0-122.0,7372c97a-e626-4256-a44d-01b580af5c11,,1500,250,stim,,"<div class = centerbox><div class = stroop-stim style = ""color:red"">RED</div></div>","66,71,82",1500,test,TRUE,82,500,congruent,red,red,,,,,-1,-1,poldrack-single-stim,123,249193,0.0-123.0,7372c97a-e626-4256-a44d-01b580af5c11,,500,500,fixation,,<div class = centerbox><div class = fixation>+</div></div>,none,500,test,,,,,,,,,,,609,71,poldrack-categorize,124,251703,0.0-124.0,7372c97a-e626-4256-a44d-01b580af5c11,,1500,250,stim,,"<div class = centerbox><div class = stroop-stim style = ""color:green"">GREEN</div></div>","66,71,82",1500,test,TRUE,71,500,congruent,green,green,,,,,-1,-1,poldrack-single-stim,125,252461,0.0-125.0,7372c97a-e626-4256-a44d-01b580af5c11,,500,500,fixation,,<div class = centerbox><div class = fixation>+</div></div>,none,500,test,,,,,,,,,,,965,82,poldrack-categorize,126,254974,0.0-126.0,7372c97a-e626-4256-a44d-01b580af5c11,,1500,250,stim,,"<div class = centerbox><div class = stroop-stim style = ""color:red"">GREEN</div></div>","66,71,82",1500,test,TRUE,82,500,incongruent,red,green,,,,,-1,-1,poldrack-single-stim,127,255732,0.0-127.0,7372c97a-e626-4256-a44d-01b580af5c11,,500,500,fixation,,<div class = centerbox><div class = fixation>+</div></div>,none,500,test,,,,,,,,,,,640,66,poldrack-categorize,128,258242,0.0-128.0,7372c97a-e626-4256-a44d-01b580af5c11,,1500,250,stim,,"<div class = centerbox><div class = stroop-stim style = ""color:blue"">GREEN</div></div>","66,71,82",1500,test,TRUE,66,500,incongruent,blue,green,,,,,-1,-1,poldrack-single-stim,129,259003,0.0-129.0,7372c97a-e626-4256-a44d-01b580af5c11,,500,500,fixation,,<div class = centerbox><div class = fixation>+</div></div>,none,500,test,,,,,,,,,,,567,71,poldrack-categorize,130,261516,0.0-130.0,7372c97a-e626-4256-a44d-01b580af5c11,,1500,250,stim,,"<div class = centerbox><div class = stroop-stim style = ""color:green"">RED</div></div>","66,71,82",1500,test,TRUE,71,500,incongruent,green,red,,,,,-1,-1,poldrack-single-stim,131,262277,0.0-131.0,7372c97a-e626-4256-a44d-01b580af5c11,,500,500,fixation,,<div class = centerbox><div class = fixation>+</div></div>,none,500,test,,,,,,,,,,,677,66,poldrack-categorize,132,264790,0.0-132.0,7372c97a-e626-4256-a44d-01b580af5c11,,1500,250,stim,,"<div class = centerbox><div class = stroop-stim style = ""color:blue"">BLUE</div></div>","66,71,82",1500,test,TRUE,66,500,congruent,blue,blue,,,,,-1,-1,poldrack-single-stim,133,265550,0.0-133.0,7372c97a-e626-4256-a44d-01b580af5c11,,500,500,fixation,,<div class = centerbox><div class = fixation>+</div></div>,none,500,test,,,,,,,,,,,755,71,poldrack-categorize,134,268062,0.0-134.0,7372c97a-e626-4256-a44d-01b580af5c11,,1500,250,stim,,"<div class = centerbox><div class = stroop-stim style = ""color:green"">RED</div></div>","66,71,82",1500,test,TRUE,71,500,incongruent,green,red,,,,,-1,-1,poldrack-single-stim,135,268818,0.0-135.0,7372c97a-e626-4256-a44d-01b580af5c11,,500,500,fixation,,<div class = centerbox><div class = fixation>+</div></div>,none,500,test,,,,,,,,,,,607,82,poldrack-categorize,136,271332,0.0-136.0,7372c97a-e626-4256-a44d-01b580af5c11,,1500,250,stim,,"<div class = centerbox><div class = stroop-stim style = ""color:red"">RED</div></div>","66,71,82",1500,test,TRUE,82,500,congruent,red,red,,,,,-1,-1,poldrack-single-stim,137,272092,0.0-137.0,7372c97a-e626-4256-a44d-01b580af5c11,,500,500,fixation,,<div class = centerbox><div class = fixation>+</div></div>,none,500,test,,,,,,,,,,,996,82,poldrack-categorize,138,274600,0.0-138.0,7372c97a-e626-4256-a44d-01b580af5c11,,1500,250,stim,,"<div class = centerbox><div class = stroop-stim style = ""color:red"">BLUE</div></div>","66,71,82",1500,test,TRUE,82,500,incongruent,red,blue,,,,,-1,-1,poldrack-single-stim,139,275360,0.0-139.0,7372c97a-e626-4256-a44d-01b580af5c11,,500,500,fixation,,<div class = centerbox><div class = fixation>+</div></div>,none,500,test,,,,,,,,,,,752,66,poldrack-categorize,140,277873,0.0-140.0,7372c97a-e626-4256-a44d-01b580af5c11,,1500,250,stim,,"<div class = centerbox><div class = stroop-stim style = ""color:blue"">GREEN</div></div>","66,71,82",1500,test,TRUE,66,500,incongruent,blue,green,,,,,-1,-1,poldrack-single-stim,141,278633,0.0-141.0,7372c97a-e626-4256-a44d-01b580af5c11,,500,500,fixation,,<div class = centerbox><div class = fixation>+</div></div>,none,500,test,,,,,,,,,,,615,71,poldrack-categorize,142,281147,0.0-142.0,7372c97a-e626-4256-a44d-01b580af5c11,,1500,250,stim,,"<div class = centerbox><div class = stroop-stim style = ""color:green"">GREEN</div></div>","66,71,82",1500,test,TRUE,71,500,congruent,green,green,,,,,-1,-1,poldrack-single-stim,143,281901,0.0-143.0,7372c97a-e626-4256-a44d-01b580af5c11,,500,500,fixation,,<div class = centerbox><div class = fixation>+</div></div>,none,500,test,,,,,,,,,,,723,71,poldrack-categorize,144,284415,0.0-144.0,7372c97a-e626-4256-a44d-01b580af5c11,,1500,250,stim,,"<div class = centerbox><div class = stroop-stim style = ""color:green"">RED</div></div>","66,71,82",1500,test,TRUE,71,500,incongruent,green,red,,,,,-1,-1,poldrack-single-stim,145,285176,0.0-145.0,7372c97a-e626-4256-a44d-01b580af5c11,,500,500,fixation,,<div class = centerbox><div class = fixation>+</div></div>,none,500,test,,,,,,,,,,,785,66,poldrack-categorize,146,287689,0.0-146.0,7372c97a-e626-4256-a44d-01b580af5c11,,1500,250,stim,,"<div class = centerbox><div class = stroop-stim style = ""color:blue"">BLUE</div></div>","66,71,82",1500,test,TRUE,66,500,congruent,blue,blue,,,,,-1,-1,poldrack-single-stim,147,288448,0.0-147.0,7372c97a-e626-4256-a44d-01b580af5c11,,500,500,fixation,,<div class = centerbox><div class = fixation>+</div></div>,none,500,test,,,,,,,,,,,524,82,poldrack-categorize,148,290953,0.0-148.0,7372c97a-e626-4256-a44d-01b580af5c11,,1500,250,stim,,"<div class = centerbox><div class = stroop-stim style = ""color:red"">RED</div></div>","66,71,82",1500,test,TRUE,82,500,congruent,red,red,,,,,-1,-1,poldrack-single-stim,149,291712,0.0-149.0,7372c97a-e626-4256-a44d-01b580af5c11,,500,500,fixation,,<div class = centerbox><div class = fixation>+</div></div>,none,500,test,,,,,,,,,,,1224,71,poldrack-categorize,150,294225,0.0-150.0,7372c97a-e626-4256-a44d-01b580af5c11,,1500,250,stim,,"<div class = centerbox><div class = stroop-stim style = ""color:green"">BLUE</div></div>","66,71,82",1500,test,TRUE,71,500,incongruent,green,blue,,,,,-1,-1,poldrack-single-stim,151,294986,0.0-151.0,7372c97a-e626-4256-a44d-01b580af5c11,,500,500,fixation,,<div class = centerbox><div class = fixation>+</div></div>,none,500,test,,,,,,,,,,,502,71,poldrack-categorize,152,297499,0.0-152.0,7372c97a-e626-4256-a44d-01b580af5c11,,1500,250,stim,,"<div class = centerbox><div class = stroop-stim style = ""color:green"">BLUE</div></div>","66,71,82",1500,test,TRUE,71,500,incongruent,green,blue,,,,,-1,-1,poldrack-single-stim,153,298259,0.0-153.0,7372c97a-e626-4256-a44d-01b580af5c11,,500,500,fixation,,<div class = centerbox><div class = fixation>+</div></div>,none,500,test,,,,,,,,,,,492,71,poldrack-categorize,154,300773,0.0-154.0,7372c97a-e626-4256-a44d-01b580af5c11,,1500,250,stim,,"<div class = centerbox><div class = stroop-stim style = ""color:green"">GREEN</div></div>","66,71,82",1500,test,TRUE,71,500,congruent,green,green,,,,,-1,-1,poldrack-single-stim,155,301533,0.0-155.0,7372c97a-e626-4256-a44d-01b580af5c11,,500,500,fixation,,<div class = centerbox><div class = fixation>+</div></div>,none,500,test,,,,,,,,,,,537,71,poldrack-categorize,156,304046,0.0-156.0,7372c97a-e626-4256-a44d-01b580af5c11,,1500,250,stim,,"<div class = centerbox><div class = stroop-stim style = ""color:green"">GREEN</div></div>","66,71,82",1500,test,TRUE,71,500,congruent,green,green,,,,,-1,-1,poldrack-single-stim,157,304807,0.0-157.0,7372c97a-e626-4256-a44d-01b580af5c11,,500,500,fixation,,<div class = centerbox><div class = fixation>+</div></div>,none,500,test,,,,,,,,,,,639,66,poldrack-categorize,158,307320,0.0-158.0,7372c97a-e626-4256-a44d-01b580af5c11,,1500,250,stim,,"<div class = centerbox><div class = stroop-stim style = ""color:blue"">BLUE</div></div>","66,71,82",1500,test,TRUE,66,500,congruent,blue,blue,,,,,-1,-1,poldrack-single-stim,159,308080,0.0-159.0,7372c97a-e626-4256-a44d-01b580af5c11,,500,500,fixation,,<div class = centerbox><div class = fixation>+</div></div>,none,500,test,,,,,,,,,,,768,66,poldrack-categorize,160,310588,0.0-160.0,7372c97a-e626-4256-a44d-01b580af5c11,,1500,250,stim,,"<div class = centerbox><div class = stroop-stim style = ""color:blue"">RED</div></div>","66,71,82",1500,test,TRUE,66,500,incongruent,blue,red,,,,,-1,-1,poldrack-single-stim,161,311349,0.0-161.0,7372c97a-e626-4256-a44d-01b580af5c11,,500,500,fixation,,<div class = centerbox><div class = fixation>+</div></div>,none,500,test,,,,,,,,,,,617,71,poldrack-categorize,162,313862,0.0-162.0,7372c97a-e626-4256-a44d-01b580af5c11,,1500,250,stim,,"<div class = centerbox><div class = stroop-stim style = ""color:green"">BLUE</div></div>","66,71,82",1500,test,TRUE,71,500,incongruent,green,blue,,,,,-1,-1,poldrack-single-stim,163,314623,0.0-163.0,7372c97a-e626-4256-a44d-01b580af5c11,,500,500,fixation,,<div class = centerbox><div class = fixation>+</div></div>,none,500,test,,,,,,,,,,,552,82,poldrack-categorize,164,317134,0.0-164.0,7372c97a-e626-4256-a44d-01b580af5c11,,1500,250,stim,,"<div class = centerbox><div class = stroop-stim style = ""color:red"">BLUE</div></div>","66,71,82",1500,test,TRUE,82,500,incongruent,red,blue,,,,,-1,-1,poldrack-single-stim,165,317891,0.0-165.0,7372c97a-e626-4256-a44d-01b580af5c11,,500,500,fixation,,<div class = centerbox><div class = fixation>+</div></div>,none,500,test,,,,,,,,,,,500,82,poldrack-categorize,166,320404,0.0-166.0,7372c97a-e626-4256-a44d-01b580af5c11,,1500,250,stim,,"<div class = centerbox><div class = stroop-stim style = ""color:red"">RED</div></div>","66,71,82",1500,test,TRUE,82,500,congruent,red,red,,,,,-1,-1,poldrack-single-stim,167,321164,0.0-167.0,7372c97a-e626-4256-a44d-01b580af5c11,,500,500,fixation,,<div class = centerbox><div class = fixation>+</div></div>,none,500,test,,,,,,,,,,,561,82,poldrack-categorize,168,323678,0.0-168.0,7372c97a-e626-4256-a44d-01b580af5c11,,1500,250,stim,,"<div class = centerbox><div class = stroop-stim style = ""color:red"">GREEN</div></div>","66,71,82",1500,test,TRUE,82,500,incongruent,red,green,,,,,-1,-1,poldrack-single-stim,169,324435,0.0-169.0,7372c97a-e626-4256-a44d-01b580af5c11,,500,500,fixation,,<div class = centerbox><div class = fixation>+</div></div>,none,500,test,,,,,,,,,,,787,66,poldrack-categorize,170,326946,0.0-170.0,7372c97a-e626-4256-a44d-01b580af5c11,,1500,250,stim,,"<div class = centerbox><div class = stroop-stim style = ""color:blue"">BLUE</div></div>","66,71,82",1500,test,TRUE,66,500,congruent,blue,blue,,,,,-1,-1,poldrack-single-stim,171,327706,0.0-171.0,7372c97a-e626-4256-a44d-01b580af5c11,,500,500,fixation,,<div class = centerbox><div class = fixation>+</div></div>,none,500,test,,,,,,,,,,,451,66,poldrack-categorize,172,330219,0.0-172.0,7372c97a-e626-4256-a44d-01b580af5c11,,1500,250,stim,,"<div class = centerbox><div class = stroop-stim style = ""color:blue"">BLUE</div></div>","66,71,82",1500,test,TRUE,66,500,congruent,blue,blue,,,,,-1,-1,poldrack-single-stim,173,330978,0.0-173.0,7372c97a-e626-4256-a44d-01b580af5c11,,500,500,fixation,,<div class = centerbox><div class = fixation>+</div></div>,none,500,test,,,,,,,,,,,839,66,poldrack-categorize,174,333487,0.0-174.0,7372c97a-e626-4256-a44d-01b580af5c11,,1500,250,stim,,"<div class = centerbox><div class = stroop-stim style = ""color:blue"">GREEN</div></div>","66,71,82",1500,test,TRUE,66,500,incongruent,blue,green,,,,,-1,-1,poldrack-single-stim,175,334248,0.0-175.0,7372c97a-e626-4256-a44d-01b580af5c11,,500,500,fixation,,<div class = centerbox><div class = fixation>+</div></div>,none,500,test,,,,,,,,,,,437,66,poldrack-categorize,176,336759,0.0-176.0,7372c97a-e626-4256-a44d-01b580af5c11,,1500,250,stim,,"<div class = centerbox><div class = stroop-stim style = ""color:blue"">RED</div></div>","66,71,82",1500,test,TRUE,66,500,incongruent,blue,red,,,,,-1,-1,poldrack-single-stim,177,337516,0.0-177.0,7372c97a-e626-4256-a44d-01b580af5c11,,500,500,fixation,,<div class = centerbox><div class = fixation>+</div></div>,none,500,test,,,,,,,,,,,576,71,poldrack-categorize,178,340029,0.0-178.0,7372c97a-e626-4256-a44d-01b580af5c11,,1500,250,stim,,"<div class = centerbox><div class = stroop-stim style = ""color:green"">BLUE</div></div>","66,71,82",1500,test,TRUE,71,500,incongruent,green,blue,,,,,-1,-1,poldrack-single-stim,179,340790,0.0-179.0,7372c97a-e626-4256-a44d-01b580af5c11,,500,500,fixation,,<div class = centerbox><div class = fixation>+</div></div>,none,500,test,,,,,,,,,,,663,66,poldrack-categorize,180,343303,0.0-180.0,7372c97a-e626-4256-a44d-01b580af5c11,,1500,250,stim,,"<div class = centerbox><div class = stroop-stim style = ""color:blue"">GREEN</div></div>","66,71,82",1500,test,TRUE,66,500,incongruent,blue,green,,,,,-1,-1,poldrack-single-stim,181,344064,0.0-181.0,7372c97a-e626-4256-a44d-01b580af5c11,,500,500,fixation,,<div class = centerbox><div class = fixation>+</div></div>,none,500,test,,,,,,,,,,,613,71,poldrack-categorize,182,346577,0.0-182.0,7372c97a-e626-4256-a44d-01b580af5c11,,1500,250,stim,,"<div class = centerbox><div class = stroop-stim style = ""color:green"">RED</div></div>","66,71,82",1500,test,TRUE,71,500,incongruent,green,red,,,,,-1,-1,poldrack-single-stim,183,347337,0.0-183.0,7372c97a-e626-4256-a44d-01b580af5c11,,500,500,fixation,,<div class = centerbox><div class = fixation>+</div></div>,none,500,test,,,,,,,,,,,714,71,poldrack-categorize,184,349851,0.0-184.0,7372c97a-e626-4256-a44d-01b580af5c11,,1500,250,stim,,"<div class = centerbox><div class = stroop-stim style = ""color:green"">GREEN</div></div>","66,71,82",1500,test,TRUE,71,500,congruent,green,green,,,,,-1,-1,poldrack-single-stim,185,350611,0.0-185.0,7372c97a-e626-4256-a44d-01b580af5c11,,500,500,fixation,,<div class = centerbox><div class = fixation>+</div></div>,none,500,test,,,,,,,,,,,600,66,poldrack-categorize,186,353124,0.0-186.0,7372c97a-e626-4256-a44d-01b580af5c11,,1500,250,stim,,"<div class = centerbox><div class = stroop-stim style = ""color:blue"">BLUE</div></div>","66,71,82",1500,test,TRUE,66,500,congruent,blue,blue,,,,,-1,-1,poldrack-single-stim,187,353885,0.0-187.0,7372c97a-e626-4256-a44d-01b580af5c11,,500,500,fixation,,<div class = centerbox><div class = fixation>+</div></div>,none,500,test,,,,,,,,,,,702,66,poldrack-categorize,188,356398,0.0-188.0,7372c97a-e626-4256-a44d-01b580af5c11,,1500,250,stim,,"<div class = centerbox><div class = stroop-stim style = ""color:blue"">GREEN</div></div>","66,71,82",1500,test,TRUE,66,500,incongruent,blue,green,,,,,-1,-1,poldrack-single-stim,189,357159,0.0-189.0,7372c97a-e626-4256-a44d-01b580af5c11,,500,500,fixation,,<div class = centerbox><div class = fixation>+</div></div>,none,500,test,,,,,,,,,,,573,66,poldrack-categorize,190,359671,0.0-190.0,7372c97a-e626-4256-a44d-01b580af5c11,,1500,250,stim,,"<div class = centerbox><div class = stroop-stim style = ""color:blue"">BLUE</div></div>","66,71,82",1500,test,TRUE,66,500,congruent,blue,blue,,,,,-1,-1,poldrack-single-stim,191,360433,0.0-191.0,7372c97a-e626-4256-a44d-01b580af5c11,,500,500,fixation,,<div class = centerbox><div class = fixation>+</div></div>,none,500,test,,,,,,,,,,,627,66,poldrack-categorize,192,362946,0.0-192.0,7372c97a-e626-4256-a44d-01b580af5c11,,1500,250,stim,,"<div class = centerbox><div class = stroop-stim style = ""color:blue"">BLUE</div></div>","66,71,82",1500,test,TRUE,66,500,congruent,blue,blue,,,,,-1,-1,poldrack-single-stim,193,363706,0.0-193.0,7372c97a-e626-4256-a44d-01b580af5c11,,500,500,fixation,,<div class = centerbox><div class = fixation>+</div></div>,none,500,test,,,,,,,,,,,800,71,poldrack-categorize,194,366220,0.0-194.0,7372c97a-e626-4256-a44d-01b580af5c11,,1500,250,stim,,"<div class = centerbox><div class = stroop-stim style = ""color:green"">GREEN</div></div>","66,71,82",1500,test,TRUE,71,500,congruent,green,green,,,,,-1,-1,poldrack-single-stim,195,366980,0.0-195.0,7372c97a-e626-4256-a44d-01b580af5c11,,500,500,fixation,,<div class = centerbox><div class = fixation>+</div></div>,none,500,test,,,,,,,,,,,430,71,poldrack-categorize,196,369494,0.0-196.0,7372c97a-e626-4256-a44d-01b580af5c11,,1500,250,stim,,"<div class = centerbox><div class = stroop-stim style = ""color:green"">GREEN</div></div>","66,71,82",1500,test,TRUE,71,500,congruent,green,green,,,,,-1,-1,poldrack-single-stim,197,370254,0.0-197.0,7372c97a-e626-4256-a44d-01b580af5c11,,500,500,fixation,,<div class = centerbox><div class = fixation>+</div></div>,none,500,test,,,,,,,,,,,740,82,poldrack-categorize,198,372767,0.0-198.0,7372c97a-e626-4256-a44d-01b580af5c11,,1500,250,stim,,"<div class = centerbox><div class = stroop-stim style = ""color:red"">RED</div></div>","66,71,82",1500,test,TRUE,82,500,congruent,red,red,,,,,-1,-1,poldrack-single-stim,199,373522,0.0-199.0,7372c97a-e626-4256-a44d-01b580af5c11,,500,500,fixation,,<div class = centerbox><div class = fixation>+</div></div>,none,500,test,,,,,,,,,,,824,66,poldrack-categorize,200,376035,0.0-200.0,7372c97a-e626-4256-a44d-01b580af5c11,,1500,250,stim,,"<div class = centerbox><div class = stroop-stim style = ""color:blue"">RED</div></div>","66,71,82",1500,test,TRUE,66,500,incongruent,blue,red,,,,,-1,-1,poldrack-single-stim,201,376796,0.0-201.0,7372c97a-e626-4256-a44d-01b580af5c11,,500,500,fixation,,<div class = centerbox><div class = fixation>+</div></div>,none,500,test,,,,,,,,,,,717,82,poldrack-categorize,202,379309,0.0-202.0,7372c97a-e626-4256-a44d-01b580af5c11,,1500,250,stim,,"<div class = centerbox><div class = stroop-stim style = ""color:red"">GREEN</div></div>","66,71,82",1500,test,TRUE,82,500,incongruent,red,green,,,,,-1,-1,poldrack-single-stim,203,380070,0.0-203.0,7372c97a-e626-4256-a44d-01b580af5c11,,500,500,fixation,,<div class = centerbox><div class = fixation>+</div></div>,none,500,test,,,,,,,,,,,844,66,poldrack-categorize,204,382583,0.0-204.0,7372c97a-e626-4256-a44d-01b580af5c11,,1500,250,stim,,"<div class = centerbox><div class = stroop-stim style = ""color:blue"">GREEN</div></div>","66,71,82",1500,test,TRUE,66,500,incongruent,blue,green,,,,,-1,-1,poldrack-single-stim,205,383343,0.0-205.0,7372c97a-e626-4256-a44d-01b580af5c11,,500,500,fixation,,<div class = centerbox><div class = fixation>+</div></div>,none,500,test,,,,,,,,,,,587,71,poldrack-categorize,206,385857,0.0-206.0,7372c97a-e626-4256-a44d-01b580af5c11,,1500,250,stim,,"<div class = centerbox><div class = stroop-stim style = ""color:green"">GREEN</div></div>","66,71,82",1500,test,TRUE,71,500,congruent,green,green,,,,,-1,-1,poldrack-single-stim,207,386617,0.0-207.0,7372c97a-e626-4256-a44d-01b580af5c11,,500,500,fixation,,<div class = centerbox><div class = fixation>+</div></div>,none,500,test,,,,,,,,,,,840,71,poldrack-categorize,208,389128,0.0-208.0,7372c97a-e626-4256-a44d-01b580af5c11,,1500,250,stim,,"<div class = centerbox><div class = stroop-stim style = ""color:green"">RED</div></div>","66,71,82",1500,test,TRUE,71,500,incongruent,green,red,,,,,-1,-1,poldrack-single-stim,209,389885,0.0-209.0,7372c97a-e626-4256-a44d-01b580af5c11,,500,500,fixation,,<div class = centerbox><div class = fixation>+</div></div>,none,500,test,,,,,,,,,,,588,66,poldrack-categorize,210,392399,0.0-210.0,7372c97a-e626-4256-a44d-01b580af5c11,,1500,250,stim,,"<div class = centerbox><div class = stroop-stim style = ""color:blue"">RED</div></div>","66,71,82",1500,test,TRUE,66,500,incongruent,blue,red,,,,,-1,-1,poldrack-single-stim,211,393153,0.0-211.0,7372c97a-e626-4256-a44d-01b580af5c11,,500,500,fixation,,<div class = centerbox><div class = fixation>+</div></div>,none,500,test,,,,,,,,,,,627,66,poldrack-categorize,212,395658,0.0-212.0,7372c97a-e626-4256-a44d-01b580af5c11,,1500,250,stim,,"<div class = centerbox><div class = stroop-stim style = ""color:blue"">BLUE</div></div>","66,71,82",1500,test,TRUE,66,500,congruent,blue,blue,,,,,-1,-1,poldrack-single-stim,213,396415,0.0-213.0,7372c97a-e626-4256-a44d-01b580af5c11,,500,500,fixation,,<div class = centerbox><div class = fixation>+</div></div>,none,500,test,,,,,,,,,,,1098,66,poldrack-categorize,214,398929,0.0-214.0,7372c97a-e626-4256-a44d-01b580af5c11,,1500,250,stim,,"<div class = centerbox><div class = stroop-stim style = ""color:blue"">GREEN</div></div>","66,71,82",1500,test,TRUE,66,500,incongruent,blue,green,,,,,-1,-1,poldrack-single-stim,215,399688,0.0-215.0,7372c97a-e626-4256-a44d-01b580af5c11,,500,500,fixation,,<div class = centerbox><div class = fixation>+</div></div>,none,500,test,,,,,,,,,,,604,66,poldrack-categorize,216,402197,0.0-216.0,7372c97a-e626-4256-a44d-01b580af5c11,,1500,250,stim,,"<div class = centerbox><div class = stroop-stim style = ""color:blue"">BLUE</div></div>","66,71,82",1500,test,TRUE,66,500,congruent,blue,blue,,,,,-1,-1,poldrack-single-stim,217,402957,0.0-217.0,7372c97a-e626-4256-a44d-01b580af5c11,,500,500,fixation,,<div class = centerbox><div class = fixation>+</div></div>,none,500,test,,,,,,,,,,,587,71,poldrack-categorize,218,405471,0.0-218.0,7372c97a-e626-4256-a44d-01b580af5c11,,1500,250,stim,,"<div class = centerbox><div class = stroop-stim style = ""color:green"">GREEN</div></div>","66,71,82",1500,test,TRUE,71,500,congruent,green,green,,,,,-1,-1,poldrack-single-stim,219,406231,0.0-219.0,7372c97a-e626-4256-a44d-01b580af5c11,,500,500,fixation,,<div class = centerbox><div class = fixation>+</div></div>,none,500,test,,,,,,,,,,,704,66,poldrack-categorize,220,408744,0.0-220.0,7372c97a-e626-4256-a44d-01b580af5c11,,1500,250,stim,,"<div class = centerbox><div class = stroop-stim style = ""color:blue"">RED</div></div>","66,71,82",1500,test,TRUE,66,500,incongruent,blue,red,,,,,-1,-1,poldrack-single-stim,221,409505,0.0-221.0,7372c97a-e626-4256-a44d-01b580af5c11,,500,500,fixation,,<div class = centerbox><div class = fixation>+</div></div>,none,500,test,,,,,,,,,,,583,82,poldrack-categorize,222,412016,0.0-222.0,7372c97a-e626-4256-a44d-01b580af5c11,,1500,250,stim,,"<div class = centerbox><div class = stroop-stim style = ""color:red"">GREEN</div></div>","66,71,82",1500,test,TRUE,82,500,incongruent,red,green,,,,,-1,-1,poldrack-single-stim,223,412773,0.0-223.0,7372c97a-e626-4256-a44d-01b580af5c11,,500,500,fixation,,<div class = centerbox><div class = fixation>+</div></div>,none,500,test,,,,,,,,,,,594,82,poldrack-categorize,224,415286,0.0-224.0,7372c97a-e626-4256-a44d-01b580af5c11,,1500,250,stim,,"<div class = centerbox><div class = stroop-stim style = ""color:red"">GREEN</div></div>","66,71,82",1500,test,TRUE,82,500,incongruent,red,green,,,,,-1,-1,poldrack-single-stim,225,416047,0.0-225.0,7372c97a-e626-4256-a44d-01b580af5c11,,500,500,fixation,,<div class = centerbox><div class = fixation>+</div></div>,none,500,test,,,,,,,,,,,609,82,poldrack-categorize,226,418560,0.0-226.0,7372c97a-e626-4256-a44d-01b580af5c11,,1500,250,stim,,"<div class = centerbox><div class = stroop-stim style = ""color:red"">RED</div></div>","66,71,82",1500,test,TRUE,82,500,congruent,red,red,,,,,-1,-1,poldrack-single-stim,227,419320,0.0-227.0,7372c97a-e626-4256-a44d-01b580af5c11,,500,500,fixation,,<div class = centerbox><div class = fixation>+</div></div>,none,500,test,,,,,,,,,,,543,82,poldrack-categorize,228,421834,0.0-228.0,7372c97a-e626-4256-a44d-01b580af5c11,,1500,250,stim,,"<div class = centerbox><div class = stroop-stim style = ""color:red"">RED</div></div>","66,71,82",1500,test,TRUE,82,500,congruent,red,red,,,,,-1,-1,poldrack-single-stim,229,422594,0.0-229.0,7372c97a-e626-4256-a44d-01b580af5c11,,500,500,fixation,,<div class = centerbox><div class = fixation>+</div></div>,none,500,test,,,,,,,,,,,805,66,poldrack-categorize,230,425107,0.0-230.0,7372c97a-e626-4256-a44d-01b580af5c11,,1500,250,stim,,"<div class = centerbox><div class = stroop-stim style = ""color:blue"">RED</div></div>","66,71,82",1500,test,TRUE,66,500,incongruent,blue,red,,,,,-1,-1,poldrack-single-stim,231,425868,0.0-231.0,7372c97a-e626-4256-a44d-01b580af5c11,,500,500,fixation,,<div class = centerbox><div class = fixation>+</div></div>,none,500,test,,,,,,,,,,,882,82,poldrack-categorize,232,428379,0.0-232.0,7372c97a-e626-4256-a44d-01b580af5c11,,1500,250,stim,,"<div class = centerbox><div class = stroop-stim style = ""color:red"">RED</div></div>","66,71,82",1500,test,TRUE,82,500,congruent,red,red,,,,,-1,-1,poldrack-single-stim,233,429136,0.0-233.0,7372c97a-e626-4256-a44d-01b580af5c11,,500,500,fixation,,<div class = centerbox><div class = fixation>+</div></div>,none,500,test,,,,,,,,,,,622,66,poldrack-categorize,234,431645,0.0-234.0,7372c97a-e626-4256-a44d-01b580af5c11,,1500,250,stim,,"<div class = centerbox><div class = stroop-stim style = ""color:blue"">RED</div></div>","66,71,82",1500,test,TRUE,66,500,incongruent,blue,red,,,,,-1,-1,poldrack-single-stim,235,432404,0.0-235.0,7372c97a-e626-4256-a44d-01b580af5c11,,500,500,fixation,,<div class = centerbox><div class = fixation>+</div></div>,none,500,test,,,,,,,,,,,666,82,poldrack-categorize,236,434917,0.0-236.0,7372c97a-e626-4256-a44d-01b580af5c11,,1500,250,stim,,"<div class = centerbox><div class = stroop-stim style = ""color:red"">GREEN</div></div>","66,71,82",1500,test,TRUE,82,500,incongruent,red,green,,,,,-1,-1,poldrack-single-stim,237,435678,0.0-237.0,7372c97a-e626-4256-a44d-01b580af5c11,,500,500,fixation,,<div class = centerbox><div class = fixation>+</div></div>,none,500,test,,,,,,,,,,,584,71,poldrack-categorize,238,438191,0.0-238.0,7372c97a-e626-4256-a44d-01b580af5c11,,1500,250,stim,,"<div class = centerbox><div class = stroop-stim style = ""color:green"">BLUE</div></div>","66,71,82",1500,test,TRUE,71,500,incongruent,green,blue,,,,,-1,-1,poldrack-single-stim,239,438952,0.0-239.0,7372c97a-e626-4256-a44d-01b580af5c11,,500,500,fixation,,<div class = centerbox><div class = fixation>+</div></div>,none,500,test,,,,,,,,,,,502,71,poldrack-categorize,240,441465,0.0-240.0,7372c97a-e626-4256-a44d-01b580af5c11,,1500,250,stim,,"<div class = centerbox><div class = stroop-stim style = ""color:green"">RED</div></div>","66,71,82",1500,test,TRUE,71,500,incongruent,green,red,,,,,-1,-1,poldrack-single-stim,241,442225,0.0-241.0,7372c97a-e626-4256-a44d-01b580af5c11,,500,500,fixation,,<div class = centerbox><div class = fixation>+</div></div>,none,500,test,,,,,,,,,,,692,82,poldrack-categorize,242,444739,0.0-242.0,7372c97a-e626-4256-a44d-01b580af5c11,,1500,250,stim,,"<div class = centerbox><div class = stroop-stim style = ""color:red"">GREEN</div></div>","66,71,82",1500,test,TRUE,82,500,incongruent,red,green,,,,,-1,-1,poldrack-single-stim,243,445499,0.0-243.0,7372c97a-e626-4256-a44d-01b580af5c11,,500,500,fixation,,<div class = centerbox><div class = fixation>+</div></div>,none,500,test,,,,,,,,,,,634,71,poldrack-categorize,244,448009,0.0-244.0,7372c97a-e626-4256-a44d-01b580af5c11,,1500,250,stim,,"<div class = centerbox><div class = stroop-stim style = ""color:green"">GREEN</div></div>","66,71,82",1500,test,TRUE,71,500,congruent,green,green,,,,,27030,,survey-text,245,475297,0.0-246.0,7372c97a-e626-4256-a44d-01b580af5c11,,,,post task questions,,,,,,,,,,,,"{""Q0"":""I was asked to pick the ink color of the word. "",""Q1"":""""}",,,,2434,13,poldrack-text,246,478732,0.0-247.0,7372c97a-e626-4256-a44d-01b580af5c11,<div class = centerbox><p class = center-block-text>Thanks for completing this task!</p><p class = center-block-text>Press <strong>enter</strong> to continue.</p></div>,2434,0,end,,,,,,,,,,,,,stroop,TRUE,,2228,13,poldrack-text,247,480996,0.0-248.0-0.0,7372c97a-e626-4256-a44d-01b580af5c11,<div class = centerbox><p class = center-block-text>Done with instructions. Press <strong>enter</strong> to continue.</p></div>,2228,0,instruction,,,,,,,,,,,,,,,,