rt,key_press,trial_type,trial_index,time_elapsed,internal_node_id,subject,text,block_duration,timing_post_trial,trial_id,view_history,stimulus,possible_responses,stim_duration,exp_stage,stim_place,stim_id,condition,correct,correct_response,responses,exp_id,feedback_duration,stim_color,stim_word,credit_var6059,13,text,0,6061,0.0-0.0,e44bab6e-9055-48b3-b3d1-c9f485bbc19e,,,,,,,,,,,,,,,,,,,,2327,13,poldrack-text,389,314216,0.0-388.0-0.0,e44bab6e-9055-48b3-b3d1-c9f485bbc19e,<div class = centerbox><p class = center-block-text>Done with instructions. Press <strong>enter</strong> to continue.</p></div>,2327,0,instruction,,,,,,,,,,,,,,,,65078,,poldrack-instructions,390,379294,0.0-388.0-1.0,e44bab6e-9055-48b3-b3d1-c9f485bbc19e,,,,instruction,"[{""page_index"":0,""viewing_time"":65078}]",,,,,,,,,,,,,,,6835,13,poldrack-text,391,387138,0.0-389.0,e44bab6e-9055-48b3-b3d1-c9f485bbc19e,"<div class = centerbox><p class = block-text>We will start with a few practice trials. Remember, press the key corresponding to the <strong>ink</strong> color of the word: ""r"" for words colored red, ""b"" for words colored blue, and ""g"" for words colored green.</p><p class = block-text>Press <strong>enter</strong> to begin practice.</p></div>",6835,1000,practice_intro,,,,,,,,,,,,,,,,-1,-1,poldrack-single-stim,392,388647,0.0-390.0,e44bab6e-9055-48b3-b3d1-c9f485bbc19e,,500,500,fixation,,<div class = centerbox><div class = fixation>+</div></div>,none,500,practice,,,,,,,,,,,1242,66,poldrack-categorize,393,391160,0.0-391.0,e44bab6e-9055-48b3-b3d1-c9f485bbc19e,,1500,250,stim,,"<div class = centerbox><div class = stroop-stim style = ""color:blue"">BLUE</div></div>","66,71,82",1500,practice,,,congruent,TRUE,66,,,500,blue,blue,-1,-1,poldrack-single-stim,394,391916,0.0-392.0,e44bab6e-9055-48b3-b3d1-c9f485bbc19e,,500,500,fixation,,<div class = centerbox><div class = fixation>+</div></div>,none,500,practice,,,,,,,,,,,1083,66,poldrack-categorize,395,394428,0.0-393.0,e44bab6e-9055-48b3-b3d1-c9f485bbc19e,,1500,250,stim,,"<div class = centerbox><div class = stroop-stim style = ""color:blue"">BLUE</div></div>","66,71,82",1500,practice,,,congruent,TRUE,66,,,500,blue,blue,-1,-1,poldrack-single-stim,396,395188,0.0-394.0,e44bab6e-9055-48b3-b3d1-c9f485bbc19e,,500,500,fixation,,<div class = centerbox><div class = fixation>+</div></div>,none,500,practice,,,,,,,,,,,1133,82,poldrack-categorize,397,397702,0.0-395.0,e44bab6e-9055-48b3-b3d1-c9f485bbc19e,,1500,250,stim,,"<div class = centerbox><div class = stroop-stim style = ""color:red"">RED</div></div>","66,71,82",1500,practice,,,congruent,TRUE,82,,,500,red,red,-1,-1,poldrack-single-stim,398,398460,0.0-396.0,e44bab6e-9055-48b3-b3d1-c9f485bbc19e,,500,500,fixation,,<div class = centerbox><div class = fixation>+</div></div>,none,500,practice,,,,,,,,,,,1152,82,poldrack-categorize,399,400970,0.0-397.0,e44bab6e-9055-48b3-b3d1-c9f485bbc19e,,1500,250,stim,,"<div class = centerbox><div class = stroop-stim style = ""color:red"">GREEN</div></div>","66,71,82",1500,practice,,,incongruent,TRUE,82,,,500,red,green,-1,-1,poldrack-single-stim,400,401728,0.0-398.0,e44bab6e-9055-48b3-b3d1-c9f485bbc19e,,500,500,fixation,,<div class = centerbox><div class = fixation>+</div></div>,none,500,practice,,,,,,,,,,,740,82,poldrack-categorize,401,404239,0.0-399.0,e44bab6e-9055-48b3-b3d1-c9f485bbc19e,,1500,250,stim,,"<div class = centerbox><div class = stroop-stim style = ""color:red"">RED</div></div>","66,71,82",1500,practice,,,congruent,TRUE,82,,,500,red,red,-1,-1,poldrack-single-stim,402,404998,0.0-400.0,e44bab6e-9055-48b3-b3d1-c9f485bbc19e,,500,500,fixation,,<div class = centerbox><div class = fixation>+</div></div>,none,500,practice,,,,,,,,,,,878,66,poldrack-categorize,403,407506,0.0-401.0,e44bab6e-9055-48b3-b3d1-c9f485bbc19e,,1500,250,stim,,"<div class = centerbox><div class = stroop-stim style = ""color:blue"">BLUE</div></div>","66,71,82",1500,practice,,,congruent,TRUE,66,,,500,blue,blue,-1,-1,poldrack-single-stim,404,408266,0.0-402.0,e44bab6e-9055-48b3-b3d1-c9f485bbc19e,,500,500,fixation,,<div class = centerbox><div class = fixation>+</div></div>,none,500,practice,,,,,,,,,,,-1,-1,poldrack-categorize,405,410779,0.0-403.0,e44bab6e-9055-48b3-b3d1-c9f485bbc19e,,1500,250,stim,,"<div class = centerbox><div class = stroop-stim style = ""color:green"">BLUE</div></div>","66,71,82",1500,practice,,,incongruent,FALSE,71,,,500,green,blue,-1,-1,poldrack-single-stim,406,411540,0.0-404.0,e44bab6e-9055-48b3-b3d1-c9f485bbc19e,,500,500,fixation,,<div class = centerbox><div class = fixation>+</div></div>,none,500,practice,,,,,,,,,,,776,66,poldrack-categorize,407,414047,0.0-405.0,e44bab6e-9055-48b3-b3d1-c9f485bbc19e,,1500,250,stim,,"<div class = centerbox><div class = stroop-stim style = ""color:blue"">BLUE</div></div>","66,71,82",1500,practice,,,congruent,TRUE,66,,,500,blue,blue,-1,-1,poldrack-single-stim,408,414808,0.0-406.0,e44bab6e-9055-48b3-b3d1-c9f485bbc19e,,500,500,fixation,,<div class = centerbox><div class = fixation>+</div></div>,none,500,practice,,,,,,,,,,,761,82,poldrack-categorize,409,417321,0.0-407.0,e44bab6e-9055-48b3-b3d1-c9f485bbc19e,,1500,250,stim,,"<div class = centerbox><div class = stroop-stim style = ""color:red"">GREEN</div></div>","66,71,82",1500,practice,,,incongruent,TRUE,82,,,500,red,green,-1,-1,poldrack-single-stim,410,418080,0.0-408.0,e44bab6e-9055-48b3-b3d1-c9f485bbc19e,,500,500,fixation,,<div class = centerbox><div class = fixation>+</div></div>,none,500,practice,,,,,,,,,,,1010,71,poldrack-categorize,411,420589,0.0-409.0,e44bab6e-9055-48b3-b3d1-c9f485bbc19e,,1500,250,stim,,"<div class = centerbox><div class = stroop-stim style = ""color:green"">RED</div></div>","66,71,82",1500,practice,,,incongruent,TRUE,71,,,500,green,red,-1,-1,poldrack-single-stim,412,421344,0.0-410.0,e44bab6e-9055-48b3-b3d1-c9f485bbc19e,,500,500,fixation,,<div class = centerbox><div class = fixation>+</div></div>,none,500,practice,,,,,,,,,,,639,71,poldrack-categorize,413,423857,0.0-411.0,e44bab6e-9055-48b3-b3d1-c9f485bbc19e,,1500,250,stim,,"<div class = centerbox><div class = stroop-stim style = ""color:green"">GREEN</div></div>","66,71,82",1500,practice,,,congruent,TRUE,71,,,500,green,green,-1,-1,poldrack-single-stim,414,424618,0.0-412.0,e44bab6e-9055-48b3-b3d1-c9f485bbc19e,,500,500,fixation,,<div class = centerbox><div class = fixation>+</div></div>,none,500,practice,,,,,,,,,,,583,71,poldrack-categorize,415,427131,0.0-413.0,e44bab6e-9055-48b3-b3d1-c9f485bbc19e,,1500,250,stim,,"<div class = centerbox><div class = stroop-stim style = ""color:green"">GREEN</div></div>","66,71,82",1500,practice,,,congruent,TRUE,71,,,500,green,green,-1,-1,poldrack-single-stim,416,427889,0.0-414.0,e44bab6e-9055-48b3-b3d1-c9f485bbc19e,,500,500,fixation,,<div class = centerbox><div class = fixation>+</div></div>,none,500,practice,,,,,,,,,,,505,71,poldrack-categorize,417,430399,0.0-415.0,e44bab6e-9055-48b3-b3d1-c9f485bbc19e,,1500,250,stim,,"<div class = centerbox><div class = stroop-stim style = ""color:green"">GREEN</div></div>","66,71,82",1500,practice,,,congruent,TRUE,71,,,500,green,green,-1,-1,poldrack-single-stim,418,431159,0.0-416.0,e44bab6e-9055-48b3-b3d1-c9f485bbc19e,,500,500,fixation,,<div class = centerbox><div class = fixation>+</div></div>,none,500,practice,,,,,,,,,,,727,82,poldrack-categorize,419,433673,0.0-417.0,e44bab6e-9055-48b3-b3d1-c9f485bbc19e,,1500,250,stim,,"<div class = centerbox><div class = stroop-stim style = ""color:red"">RED</div></div>","66,71,82",1500,practice,,,congruent,TRUE,82,,,500,red,red,-1,-1,poldrack-single-stim,420,434433,0.0-418.0,e44bab6e-9055-48b3-b3d1-c9f485bbc19e,,500,500,fixation,,<div class = centerbox><div class = fixation>+</div></div>,none,500,practice,,,,,,,,,,,958,66,poldrack-categorize,421,436946,0.0-419.0,e44bab6e-9055-48b3-b3d1-c9f485bbc19e,,1500,250,stim,,"<div class = centerbox><div class = stroop-stim style = ""color:blue"">RED</div></div>","66,71,82",1500,practice,,,incongruent,TRUE,66,,,500,blue,red,-1,-1,poldrack-single-stim,422,437705,0.0-420.0,e44bab6e-9055-48b3-b3d1-c9f485bbc19e,,500,500,fixation,,<div class = centerbox><div class = fixation>+</div></div>,none,500,practice,,,,,,,,,,,809,71,poldrack-categorize,423,440209,0.0-421.0,e44bab6e-9055-48b3-b3d1-c9f485bbc19e,,1500,250,stim,,"<div class = centerbox><div class = stroop-stim style = ""color:green"">RED</div></div>","66,71,82",1500,practice,,,incongruent,TRUE,71,,,500,green,red,-1,-1,poldrack-single-stim,424,440969,0.0-422.0,e44bab6e-9055-48b3-b3d1-c9f485bbc19e,,500,500,fixation,,<div class = centerbox><div class = fixation>+</div></div>,none,500,practice,,,,,,,,,,,996,71,poldrack-categorize,425,443483,0.0-423.0,e44bab6e-9055-48b3-b3d1-c9f485bbc19e,,1500,250,stim,,"<div class = centerbox><div class = stroop-stim style = ""color:green"">BLUE</div></div>","66,71,82",1500,practice,,,incongruent,TRUE,71,,,500,green,blue,-1,-1,poldrack-single-stim,426,444243,0.0-424.0,e44bab6e-9055-48b3-b3d1-c9f485bbc19e,,500,500,fixation,,<div class = centerbox><div class = fixation>+</div></div>,none,500,practice,,,,,,,,,,,722,82,poldrack-categorize,427,446756,0.0-425.0,e44bab6e-9055-48b3-b3d1-c9f485bbc19e,,1500,250,stim,,"<div class = centerbox><div class = stroop-stim style = ""color:red"">BLUE</div></div>","66,71,82",1500,practice,,,incongruent,TRUE,82,,,500,red,blue,-1,-1,poldrack-single-stim,428,447515,0.0-426.0,e44bab6e-9055-48b3-b3d1-c9f485bbc19e,,500,500,fixation,,<div class = centerbox><div class = fixation>+</div></div>,none,500,practice,,,,,,,,,,,588,82,poldrack-categorize,429,450024,0.0-427.0,e44bab6e-9055-48b3-b3d1-c9f485bbc19e,,1500,250,stim,,"<div class = centerbox><div class = stroop-stim style = ""color:red"">RED</div></div>","66,71,82",1500,practice,,,congruent,TRUE,82,,,500,red,red,-1,-1,poldrack-single-stim,430,450784,0.0-428.0,e44bab6e-9055-48b3-b3d1-c9f485bbc19e,,500,500,fixation,,<div class = centerbox><div class = fixation>+</div></div>,none,500,practice,,,,,,,,,,,808,66,poldrack-categorize,431,453292,0.0-429.0,e44bab6e-9055-48b3-b3d1-c9f485bbc19e,,1500,250,stim,,"<div class = centerbox><div class = stroop-stim style = ""color:blue"">GREEN</div></div>","66,71,82",1500,practice,,,incongruent,TRUE,66,,,500,blue,green,-1,-1,poldrack-single-stim,432,454050,0.0-430.0,e44bab6e-9055-48b3-b3d1-c9f485bbc19e,,500,500,fixation,,<div class = centerbox><div class = fixation>+</div></div>,none,500,practice,,,,,,,,,,,846,82,poldrack-categorize,433,456560,0.0-431.0,e44bab6e-9055-48b3-b3d1-c9f485bbc19e,,1500,250,stim,,"<div class = centerbox><div class = stroop-stim style = ""color:blue"">RED</div></div>","66,71,82",1500,practice,,,incongruent,FALSE,66,,,500,blue,red,-1,-1,poldrack-single-stim,434,457319,0.0-432.0,e44bab6e-9055-48b3-b3d1-c9f485bbc19e,,500,500,fixation,,<div class = centerbox><div class = fixation>+</div></div>,none,500,practice,,,,,,,,,,,808,66,poldrack-categorize,435,459826,0.0-433.0,e44bab6e-9055-48b3-b3d1-c9f485bbc19e,,1500,250,stim,,"<div class = centerbox><div class = stroop-stim style = ""color:blue"">GREEN</div></div>","66,71,82",1500,practice,,,incongruent,TRUE,66,,,500,blue,green,-1,-1,poldrack-single-stim,436,460583,0.0-434.0,e44bab6e-9055-48b3-b3d1-c9f485bbc19e,,500,500,fixation,,<div class = centerbox><div class = fixation>+</div></div>,none,500,practice,,,,,,,,,,,629,82,poldrack-categorize,437,463096,0.0-435.0,e44bab6e-9055-48b3-b3d1-c9f485bbc19e,,1500,250,stim,,"<div class = centerbox><div class = stroop-stim style = ""color:red"">BLUE</div></div>","66,71,82",1500,practice,,,incongruent,TRUE,82,,,500,red,blue,-1,-1,poldrack-single-stim,438,463853,0.0-436.0,e44bab6e-9055-48b3-b3d1-c9f485bbc19e,,500,500,fixation,,<div class = centerbox><div class = fixation>+</div></div>,none,500,practice,,,,,,,,,,,544,71,poldrack-categorize,439,466364,0.0-437.0,e44bab6e-9055-48b3-b3d1-c9f485bbc19e,,1500,250,stim,,"<div class = centerbox><div class = stroop-stim style = ""color:green"">GREEN</div></div>","66,71,82",1500,practice,,,congruent,TRUE,71,,,500,green,green,5096,13,poldrack-text,440,471717,0.0-439.0,e44bab6e-9055-48b3-b3d1-c9f485bbc19e,<div class = centerbox><p class = center-block-text>We will now start the test. Respond exactly like you did during practice.</p><p class = center-block-text>Press <strong>enter</strong> to begin the test.</p></div>,5096,1000,test_intro,,,,,,,,,,,,,,,,-1,-1,poldrack-single-stim,441,473226,0.0-440.0,e44bab6e-9055-48b3-b3d1-c9f485bbc19e,,500,500,fixation,,<div class = centerbox><div class = fixation>+</div></div>,none,500,test,,,,,,,,,,,946,82,poldrack-categorize,442,475737,0.0-441.0,e44bab6e-9055-48b3-b3d1-c9f485bbc19e,,1500,250,stim,,"<div class = centerbox><div class = stroop-stim style = ""color:red"">BLUE</div></div>","66,71,82",1500,test,,,incongruent,TRUE,82,,,500,red,blue,-1,-1,poldrack-single-stim,443,476493,0.0-442.0,e44bab6e-9055-48b3-b3d1-c9f485bbc19e,,500,500,fixation,,<div class = centerbox><div class = fixation>+</div></div>,none,500,test,,,,,,,,,,,473,71,poldrack-categorize,444,479007,0.0-443.0,e44bab6e-9055-48b3-b3d1-c9f485bbc19e,,1500,250,stim,,"<div class = centerbox><div class = stroop-stim style = ""color:green"">GREEN</div></div>","66,71,82",1500,test,,,congruent,TRUE,71,,,500,green,green,-1,-1,poldrack-single-stim,445,479765,0.0-444.0,e44bab6e-9055-48b3-b3d1-c9f485bbc19e,,500,500,fixation,,<div class = centerbox><div class = fixation>+</div></div>,none,500,test,,,,,,,,,,,734,71,poldrack-categorize,446,482280,0.0-445.0,e44bab6e-9055-48b3-b3d1-c9f485bbc19e,,1500,250,stim,,"<div class = centerbox><div class = stroop-stim style = ""color:green"">BLUE</div></div>","66,71,82",1500,test,,,incongruent,TRUE,71,,,500,green,blue,-1,-1,poldrack-single-stim,447,483040,0.0-446.0,e44bab6e-9055-48b3-b3d1-c9f485bbc19e,,500,500,fixation,,<div class = centerbox><div class = fixation>+</div></div>,none,500,test,,,,,,,,,,,814,71,poldrack-categorize,448,485549,0.0-447.0,e44bab6e-9055-48b3-b3d1-c9f485bbc19e,,1500,250,stim,,"<div class = centerbox><div class = stroop-stim style = ""color:green"">RED</div></div>","66,71,82",1500,test,,,incongruent,TRUE,71,,,500,green,red,-1,-1,poldrack-single-stim,449,486307,0.0-448.0,e44bab6e-9055-48b3-b3d1-c9f485bbc19e,,500,500,fixation,,<div class = centerbox><div class = fixation>+</div></div>,none,500,test,,,,,,,,,,,523,82,poldrack-categorize,450,488816,0.0-449.0,e44bab6e-9055-48b3-b3d1-c9f485bbc19e,,1500,250,stim,,"<div class = centerbox><div class = stroop-stim style = ""color:red"">RED</div></div>","66,71,82",1500,test,,,congruent,TRUE,82,,,500,red,red,-1,-1,poldrack-single-stim,451,489571,0.0-450.0,e44bab6e-9055-48b3-b3d1-c9f485bbc19e,,500,500,fixation,,<div class = centerbox><div class = fixation>+</div></div>,none,500,test,,,,,,,,,,,656,71,poldrack-categorize,452,492085,0.0-451.0,e44bab6e-9055-48b3-b3d1-c9f485bbc19e,,1500,250,stim,,"<div class = centerbox><div class = stroop-stim style = ""color:green"">RED</div></div>","66,71,82",1500,test,,,incongruent,TRUE,71,,,500,green,red,-1,-1,poldrack-single-stim,453,492843,0.0-452.0,e44bab6e-9055-48b3-b3d1-c9f485bbc19e,,500,500,fixation,,<div class = centerbox><div class = fixation>+</div></div>,none,500,test,,,,,,,,,,,627,71,poldrack-categorize,454,495352,0.0-453.0,e44bab6e-9055-48b3-b3d1-c9f485bbc19e,,1500,250,stim,,"<div class = centerbox><div class = stroop-stim style = ""color:green"">RED</div></div>","66,71,82",1500,test,,,incongruent,TRUE,71,,,500,green,red,-1,-1,poldrack-single-stim,455,496111,0.0-454.0,e44bab6e-9055-48b3-b3d1-c9f485bbc19e,,500,500,fixation,,<div class = centerbox><div class = fixation>+</div></div>,none,500,test,,,,,,,,,,,495,71,poldrack-categorize,456,498620,0.0-455.0,e44bab6e-9055-48b3-b3d1-c9f485bbc19e,,1500,250,stim,,"<div class = centerbox><div class = stroop-stim style = ""color:green"">BLUE</div></div>","66,71,82",1500,test,,,incongruent,TRUE,71,,,500,green,blue,-1,-1,poldrack-single-stim,457,499379,0.0-456.0,e44bab6e-9055-48b3-b3d1-c9f485bbc19e,,500,500,fixation,,<div class = centerbox><div class = fixation>+</div></div>,none,500,test,,,,,,,,,,,762,66,poldrack-categorize,458,501888,0.0-457.0,e44bab6e-9055-48b3-b3d1-c9f485bbc19e,,1500,250,stim,,"<div class = centerbox><div class = stroop-stim style = ""color:blue"">RED</div></div>","66,71,82",1500,test,,,incongruent,TRUE,66,,,500,blue,red,-1,-1,poldrack-single-stim,459,502648,0.0-458.0,e44bab6e-9055-48b3-b3d1-c9f485bbc19e,,500,500,fixation,,<div class = centerbox><div class = fixation>+</div></div>,none,500,test,,,,,,,,,,,620,66,poldrack-categorize,460,505156,0.0-459.0,e44bab6e-9055-48b3-b3d1-c9f485bbc19e,,1500,250,stim,,"<div class = centerbox><div class = stroop-stim style = ""color:blue"">BLUE</div></div>","66,71,82",1500,test,,,congruent,TRUE,66,,,500,blue,blue,-1,-1,poldrack-single-stim,461,505914,0.0-460.0,e44bab6e-9055-48b3-b3d1-c9f485bbc19e,,500,500,fixation,,<div class = centerbox><div class = fixation>+</div></div>,none,500,test,,,,,,,,,,,530,66,poldrack-categorize,462,508422,0.0-461.0,e44bab6e-9055-48b3-b3d1-c9f485bbc19e,,1500,250,stim,,"<div class = centerbox><div class = stroop-stim style = ""color:blue"">BLUE</div></div>","66,71,82",1500,test,,,congruent,TRUE,66,,,500,blue,blue,-1,-1,poldrack-single-stim,463,509179,0.0-462.0,e44bab6e-9055-48b3-b3d1-c9f485bbc19e,,500,500,fixation,,<div class = centerbox><div class = fixation>+</div></div>,none,500,test,,,,,,,,,,,494,71,poldrack-categorize,464,511692,0.0-463.0,e44bab6e-9055-48b3-b3d1-c9f485bbc19e,,1500,250,stim,,"<div class = centerbox><div class = stroop-stim style = ""color:green"">GREEN</div></div>","66,71,82",1500,test,,,congruent,TRUE,71,,,500,green,green,-1,-1,poldrack-single-stim,465,512450,0.0-464.0,e44bab6e-9055-48b3-b3d1-c9f485bbc19e,,500,500,fixation,,<div class = centerbox><div class = fixation>+</div></div>,none,500,test,,,,,,,,,,,914,66,poldrack-categorize,466,514960,0.0-465.0,e44bab6e-9055-48b3-b3d1-c9f485bbc19e,,1500,250,stim,,"<div class = centerbox><div class = stroop-stim style = ""color:blue"">GREEN</div></div>","66,71,82",1500,test,,,incongruent,TRUE,66,,,500,blue,green,-1,-1,poldrack-single-stim,467,515719,0.0-466.0,e44bab6e-9055-48b3-b3d1-c9f485bbc19e,,500,500,fixation,,<div class = centerbox><div class = fixation>+</div></div>,none,500,test,,,,,,,,,,,702,82,poldrack-categorize,468,518228,0.0-467.0,e44bab6e-9055-48b3-b3d1-c9f485bbc19e,,1500,250,stim,,"<div class = centerbox><div class = stroop-stim style = ""color:red"">RED</div></div>","66,71,82",1500,test,,,congruent,TRUE,82,,,500,red,red,-1,-1,poldrack-single-stim,469,518987,0.0-468.0,e44bab6e-9055-48b3-b3d1-c9f485bbc19e,,500,500,fixation,,<div class = centerbox><div class = fixation>+</div></div>,none,500,test,,,,,,,,,,,729,66,poldrack-categorize,470,521496,0.0-469.0,e44bab6e-9055-48b3-b3d1-c9f485bbc19e,,1500,250,stim,,"<div class = centerbox><div class = stroop-stim style = ""color:blue"">BLUE</div></div>","66,71,82",1500,test,,,congruent,TRUE,66,,,500,blue,blue,-1,-1,poldrack-single-stim,471,522257,0.0-470.0,e44bab6e-9055-48b3-b3d1-c9f485bbc19e,,500,500,fixation,,<div class = centerbox><div class = fixation>+</div></div>,none,500,test,,,,,,,,,,,407,71,poldrack-categorize,472,524770,0.0-471.0,e44bab6e-9055-48b3-b3d1-c9f485bbc19e,,1500,250,stim,,"<div class = centerbox><div class = stroop-stim style = ""color:green"">GREEN</div></div>","66,71,82",1500,test,,,congruent,TRUE,71,,,500,green,green,-1,-1,poldrack-single-stim,473,525528,0.0-472.0,e44bab6e-9055-48b3-b3d1-c9f485bbc19e,,500,500,fixation,,<div class = centerbox><div class = fixation>+</div></div>,none,500,test,,,,,,,,,,,915,71,poldrack-categorize,474,528038,0.0-473.0,e44bab6e-9055-48b3-b3d1-c9f485bbc19e,,1500,250,stim,,"<div class = centerbox><div class = stroop-stim style = ""color:green"">BLUE</div></div>","66,71,82",1500,test,,,incongruent,TRUE,71,,,500,green,blue,-1,-1,poldrack-single-stim,475,528797,0.0-474.0,e44bab6e-9055-48b3-b3d1-c9f485bbc19e,,500,500,fixation,,<div class = centerbox><div class = fixation>+</div></div>,none,500,test,,,,,,,,,,,549,71,poldrack-categorize,476,531306,0.0-475.0,e44bab6e-9055-48b3-b3d1-c9f485bbc19e,,1500,250,stim,,"<div class = centerbox><div class = stroop-stim style = ""color:green"">GREEN</div></div>","66,71,82",1500,test,,,congruent,TRUE,71,,,500,green,green,-1,-1,poldrack-single-stim,477,532061,0.0-476.0,e44bab6e-9055-48b3-b3d1-c9f485bbc19e,,500,500,fixation,,<div class = centerbox><div class = fixation>+</div></div>,none,500,test,,,,,,,,,,,787,66,poldrack-categorize,478,534573,0.0-477.0,e44bab6e-9055-48b3-b3d1-c9f485bbc19e,,1500,250,stim,,"<div class = centerbox><div class = stroop-stim style = ""color:blue"">RED</div></div>","66,71,82",1500,test,,,incongruent,TRUE,66,,,500,blue,red,-1,-1,poldrack-single-stim,479,535329,0.0-478.0,e44bab6e-9055-48b3-b3d1-c9f485bbc19e,,500,500,fixation,,<div class = centerbox><div class = fixation>+</div></div>,none,500,test,,,,,,,,,,,614,82,poldrack-categorize,480,537842,0.0-479.0,e44bab6e-9055-48b3-b3d1-c9f485bbc19e,,1500,250,stim,,"<div class = centerbox><div class = stroop-stim style = ""color:red"">RED</div></div>","66,71,82",1500,test,,,congruent,TRUE,82,,,500,red,red,-1,-1,poldrack-single-stim,481,538603,0.0-480.0,e44bab6e-9055-48b3-b3d1-c9f485bbc19e,,500,500,fixation,,<div class = centerbox><div class = fixation>+</div></div>,none,500,test,,,,,,,,,,,758,66,poldrack-categorize,482,541116,0.0-481.0,e44bab6e-9055-48b3-b3d1-c9f485bbc19e,,1500,250,stim,,"<div class = centerbox><div class = stroop-stim style = ""color:blue"">BLUE</div></div>","66,71,82",1500,test,,,congruent,TRUE,66,,,500,blue,blue,-1,-1,poldrack-single-stim,483,541874,0.0-482.0,e44bab6e-9055-48b3-b3d1-c9f485bbc19e,,500,500,fixation,,<div class = centerbox><div class = fixation>+</div></div>,none,500,test,,,,,,,,,,,616,66,poldrack-categorize,484,544384,0.0-483.0,e44bab6e-9055-48b3-b3d1-c9f485bbc19e,,1500,250,stim,,"<div class = centerbox><div class = stroop-stim style = ""color:blue"">BLUE</div></div>","66,71,82",1500,test,,,congruent,TRUE,66,,,500,blue,blue,-1,-1,poldrack-single-stim,485,545145,0.0-484.0,e44bab6e-9055-48b3-b3d1-c9f485bbc19e,,500,500,fixation,,<div class = centerbox><div class = fixation>+</div></div>,none,500,test,,,,,,,,,,,553,71,poldrack-categorize,486,547652,0.0-485.0,e44bab6e-9055-48b3-b3d1-c9f485bbc19e,,1500,250,stim,,"<div class = centerbox><div class = stroop-stim style = ""color:green"">GREEN</div></div>","66,71,82",1500,test,,,congruent,TRUE,71,,,500,green,green,-1,-1,poldrack-single-stim,487,548413,0.0-486.0,e44bab6e-9055-48b3-b3d1-c9f485bbc19e,,500,500,fixation,,<div class = centerbox><div class = fixation>+</div></div>,none,500,test,,,,,,,,,,,651,82,poldrack-categorize,488,550926,0.0-487.0,e44bab6e-9055-48b3-b3d1-c9f485bbc19e,,1500,250,stim,,"<div class = centerbox><div class = stroop-stim style = ""color:red"">GREEN</div></div>","66,71,82",1500,test,,,incongruent,TRUE,82,,,500,red,green,-1,-1,poldrack-single-stim,489,551684,0.0-488.0,e44bab6e-9055-48b3-b3d1-c9f485bbc19e,,500,500,fixation,,<div class = centerbox><div class = fixation>+</div></div>,none,500,test,,,,,,,,,,,811,82,poldrack-categorize,490,554194,0.0-489.0,e44bab6e-9055-48b3-b3d1-c9f485bbc19e,,1500,250,stim,,"<div class = centerbox><div class = stroop-stim style = ""color:red"">GREEN</div></div>","66,71,82",1500,test,,,incongruent,TRUE,82,,,500,red,green,-1,-1,poldrack-single-stim,491,554953,0.0-490.0,e44bab6e-9055-48b3-b3d1-c9f485bbc19e,,500,500,fixation,,<div class = centerbox><div class = fixation>+</div></div>,none,500,test,,,,,,,,,,,584,71,poldrack-categorize,492,557462,0.0-491.0,e44bab6e-9055-48b3-b3d1-c9f485bbc19e,,1500,250,stim,,"<div class = centerbox><div class = stroop-stim style = ""color:green"">GREEN</div></div>","66,71,82",1500,test,,,congruent,TRUE,71,,,500,green,green,-1,-1,poldrack-single-stim,493,558222,0.0-492.0,e44bab6e-9055-48b3-b3d1-c9f485bbc19e,,500,500,fixation,,<div class = centerbox><div class = fixation>+</div></div>,none,500,test,,,,,,,,,,,520,71,poldrack-categorize,494,560735,0.0-493.0,e44bab6e-9055-48b3-b3d1-c9f485bbc19e,,1500,250,stim,,"<div class = centerbox><div class = stroop-stim style = ""color:green"">GREEN</div></div>","66,71,82",1500,test,,,congruent,TRUE,71,,,500,green,green,-1,-1,poldrack-single-stim,495,561494,0.0-494.0,e44bab6e-9055-48b3-b3d1-c9f485bbc19e,,500,500,fixation,,<div class = centerbox><div class = fixation>+</div></div>,none,500,test,,,,,,,,,,,440,66,poldrack-categorize,496,564004,0.0-495.0,e44bab6e-9055-48b3-b3d1-c9f485bbc19e,,1500,250,stim,,"<div class = centerbox><div class = stroop-stim style = ""color:blue"">RED</div></div>","66,71,82",1500,test,,,incongruent,TRUE,66,,,500,blue,red,-1,-1,poldrack-single-stim,497,564764,0.0-496.0,e44bab6e-9055-48b3-b3d1-c9f485bbc19e,,500,500,fixation,,<div class = centerbox><div class = fixation>+</div></div>,none,500,test,,,,,,,,,,,435,82,poldrack-categorize,498,567277,0.0-497.0,e44bab6e-9055-48b3-b3d1-c9f485bbc19e,,1500,250,stim,,"<div class = centerbox><div class = stroop-stim style = ""color:red"">RED</div></div>","66,71,82",1500,test,,,congruent,TRUE,82,,,500,red,red,-1,-1,poldrack-single-stim,499,568036,0.0-498.0,e44bab6e-9055-48b3-b3d1-c9f485bbc19e,,500,500,fixation,,<div class = centerbox><div class = fixation>+</div></div>,none,500,test,,,,,,,,,,,597,71,poldrack-categorize,500,570545,0.0-499.0,e44bab6e-9055-48b3-b3d1-c9f485bbc19e,,1500,250,stim,,"<div class = centerbox><div class = stroop-stim style = ""color:green"">RED</div></div>","66,71,82",1500,test,,,incongruent,TRUE,71,,,500,green,red,-1,-1,poldrack-single-stim,501,571304,0.0-500.0,e44bab6e-9055-48b3-b3d1-c9f485bbc19e,,500,500,fixation,,<div class = centerbox><div class = fixation>+</div></div>,none,500,test,,,,,,,,,,,689,71,poldrack-categorize,502,573808,0.0-501.0,e44bab6e-9055-48b3-b3d1-c9f485bbc19e,,1500,250,stim,,"<div class = centerbox><div class = stroop-stim style = ""color:green"">BLUE</div></div>","66,71,82",1500,test,,,incongruent,TRUE,71,,,500,green,blue,-1,-1,poldrack-single-stim,503,574568,0.0-502.0,e44bab6e-9055-48b3-b3d1-c9f485bbc19e,,500,500,fixation,,<div class = centerbox><div class = fixation>+</div></div>,none,500,test,,,,,,,,,,,669,71,poldrack-categorize,504,577081,0.0-503.0,e44bab6e-9055-48b3-b3d1-c9f485bbc19e,,1500,250,stim,,"<div class = centerbox><div class = stroop-stim style = ""color:green"">RED</div></div>","66,71,82",1500,test,,,incongruent,TRUE,71,,,500,green,red,-1,-1,poldrack-single-stim,505,577842,0.0-504.0,e44bab6e-9055-48b3-b3d1-c9f485bbc19e,,500,500,fixation,,<div class = centerbox><div class = fixation>+</div></div>,none,500,test,,,,,,,,,,,635,82,poldrack-categorize,506,580355,0.0-505.0,e44bab6e-9055-48b3-b3d1-c9f485bbc19e,,1500,250,stim,,"<div class = centerbox><div class = stroop-stim style = ""color:red"">RED</div></div>","66,71,82",1500,test,,,congruent,TRUE,82,,,500,red,red,-1,-1,poldrack-single-stim,507,581113,0.0-506.0,e44bab6e-9055-48b3-b3d1-c9f485bbc19e,,500,500,fixation,,<div class = centerbox><div class = fixation>+</div></div>,none,500,test,,,,,,,,,,,734,66,poldrack-categorize,508,583617,0.0-507.0,e44bab6e-9055-48b3-b3d1-c9f485bbc19e,,1500,250,stim,,"<div class = centerbox><div class = stroop-stim style = ""color:blue"">GREEN</div></div>","66,71,82",1500,test,,,incongruent,TRUE,66,,,500,blue,green,-1,-1,poldrack-single-stim,509,584378,0.0-508.0,e44bab6e-9055-48b3-b3d1-c9f485bbc19e,,500,500,fixation,,<div class = centerbox><div class = fixation>+</div></div>,none,500,test,,,,,,,,,,,618,71,poldrack-categorize,510,586891,0.0-509.0,e44bab6e-9055-48b3-b3d1-c9f485bbc19e,,1500,250,stim,,"<div class = centerbox><div class = stroop-stim style = ""color:green"">RED</div></div>","66,71,82",1500,test,,,incongruent,TRUE,71,,,500,green,red,-1,-1,poldrack-single-stim,511,587648,0.0-510.0,e44bab6e-9055-48b3-b3d1-c9f485bbc19e,,500,500,fixation,,<div class = centerbox><div class = fixation>+</div></div>,none,500,test,,,,,,,,,,,462,71,poldrack-categorize,512,590159,0.0-511.0,e44bab6e-9055-48b3-b3d1-c9f485bbc19e,,1500,250,stim,,"<div class = centerbox><div class = stroop-stim style = ""color:green"">GREEN</div></div>","66,71,82",1500,test,,,congruent,TRUE,71,,,500,green,green,-1,-1,poldrack-single-stim,513,590918,0.0-512.0,e44bab6e-9055-48b3-b3d1-c9f485bbc19e,,500,500,fixation,,<div class = centerbox><div class = fixation>+</div></div>,none,500,test,,,,,,,,,,,466,71,poldrack-categorize,514,593427,0.0-513.0,e44bab6e-9055-48b3-b3d1-c9f485bbc19e,,1500,250,stim,,"<div class = centerbox><div class = stroop-stim style = ""color:green"">GREEN</div></div>","66,71,82",1500,test,,,congruent,TRUE,71,,,500,green,green,-1,-1,poldrack-single-stim,515,594185,0.0-514.0,e44bab6e-9055-48b3-b3d1-c9f485bbc19e,,500,500,fixation,,<div class = centerbox><div class = fixation>+</div></div>,none,500,test,,,,,,,,,,,549,82,poldrack-categorize,516,596695,0.0-515.0,e44bab6e-9055-48b3-b3d1-c9f485bbc19e,,1500,250,stim,,"<div class = centerbox><div class = stroop-stim style = ""color:red"">RED</div></div>","66,71,82",1500,test,,,congruent,TRUE,82,,,500,red,red,-1,-1,poldrack-single-stim,517,597453,0.0-516.0,e44bab6e-9055-48b3-b3d1-c9f485bbc19e,,500,500,fixation,,<div class = centerbox><div class = fixation>+</div></div>,none,500,test,,,,,,,,,,,986,82,poldrack-categorize,518,599963,0.0-517.0,e44bab6e-9055-48b3-b3d1-c9f485bbc19e,,1500,250,stim,,"<div class = centerbox><div class = stroop-stim style = ""color:red"">BLUE</div></div>","66,71,82",1500,test,,,incongruent,TRUE,82,,,500,red,blue,-1,-1,poldrack-single-stim,519,600721,0.0-518.0,e44bab6e-9055-48b3-b3d1-c9f485bbc19e,,500,500,fixation,,<div class = centerbox><div class = fixation>+</div></div>,none,500,test,,,,,,,,,,,653,71,poldrack-categorize,520,603231,0.0-519.0,e44bab6e-9055-48b3-b3d1-c9f485bbc19e,,1500,250,stim,,"<div class = centerbox><div class = stroop-stim style = ""color:green"">GREEN</div></div>","66,71,82",1500,test,,,congruent,TRUE,71,,,500,green,green,-1,-1,poldrack-single-stim,521,603989,0.0-520.0,e44bab6e-9055-48b3-b3d1-c9f485bbc19e,,500,500,fixation,,<div class = centerbox><div class = fixation>+</div></div>,none,500,test,,,,,,,,,,,625,66,poldrack-categorize,522,606499,0.0-521.0,e44bab6e-9055-48b3-b3d1-c9f485bbc19e,,1500,250,stim,,"<div class = centerbox><div class = stroop-stim style = ""color:blue"">GREEN</div></div>","66,71,82",1500,test,,,incongruent,TRUE,66,,,500,blue,green,-1,-1,poldrack-single-stim,523,607258,0.0-522.0,e44bab6e-9055-48b3-b3d1-c9f485bbc19e,,500,500,fixation,,<div class = centerbox><div class = fixation>+</div></div>,none,500,test,,,,,,,,,,,699,66,poldrack-categorize,524,609767,0.0-523.0,e44bab6e-9055-48b3-b3d1-c9f485bbc19e,,1500,250,stim,,"<div class = centerbox><div class = stroop-stim style = ""color:blue"">GREEN</div></div>","66,71,82",1500,test,,,incongruent,TRUE,66,,,500,blue,green,-1,-1,poldrack-single-stim,525,610528,0.0-524.0,e44bab6e-9055-48b3-b3d1-c9f485bbc19e,,500,500,fixation,,<div class = centerbox><div class = fixation>+</div></div>,none,500,test,,,,,,,,,,,468,66,poldrack-categorize,526,613041,0.0-525.0,e44bab6e-9055-48b3-b3d1-c9f485bbc19e,,1500,250,stim,,"<div class = centerbox><div class = stroop-stim style = ""color:blue"">BLUE</div></div>","66,71,82",1500,test,,,congruent,TRUE,66,,,500,blue,blue,-1,-1,poldrack-single-stim,527,613800,0.0-526.0,e44bab6e-9055-48b3-b3d1-c9f485bbc19e,,500,500,fixation,,<div class = centerbox><div class = fixation>+</div></div>,none,500,test,,,,,,,,,,,473,66,poldrack-categorize,528,616315,0.0-527.0,e44bab6e-9055-48b3-b3d1-c9f485bbc19e,,1500,250,stim,,"<div class = centerbox><div class = stroop-stim style = ""color:blue"">BLUE</div></div>","66,71,82",1500,test,,,congruent,TRUE,66,,,500,blue,blue,-1,-1,poldrack-single-stim,529,617073,0.0-528.0,e44bab6e-9055-48b3-b3d1-c9f485bbc19e,,500,500,fixation,,<div class = centerbox><div class = fixation>+</div></div>,none,500,test,,,,,,,,,,,525,66,poldrack-categorize,530,619577,0.0-529.0,e44bab6e-9055-48b3-b3d1-c9f485bbc19e,,1500,250,stim,,"<div class = centerbox><div class = stroop-stim style = ""color:blue"">BLUE</div></div>","66,71,82",1500,test,,,congruent,TRUE,66,,,500,blue,blue,-1,-1,poldrack-single-stim,531,620337,0.0-530.0,e44bab6e-9055-48b3-b3d1-c9f485bbc19e,,500,500,fixation,,<div class = centerbox><div class = fixation>+</div></div>,none,500,test,,,,,,,,,,,602,71,poldrack-categorize,532,622851,0.0-531.0,e44bab6e-9055-48b3-b3d1-c9f485bbc19e,,1500,250,stim,,"<div class = centerbox><div class = stroop-stim style = ""color:green"">GREEN</div></div>","66,71,82",1500,test,,,congruent,TRUE,71,,,500,green,green,-1,-1,poldrack-single-stim,533,623609,0.0-532.0,e44bab6e-9055-48b3-b3d1-c9f485bbc19e,,500,500,fixation,,<div class = centerbox><div class = fixation>+</div></div>,none,500,test,,,,,,,,,,,379,82,poldrack-categorize,534,626119,0.0-533.0,e44bab6e-9055-48b3-b3d1-c9f485bbc19e,,1500,250,stim,,"<div class = centerbox><div class = stroop-stim style = ""color:red"">RED</div></div>","66,71,82",1500,test,,,congruent,TRUE,82,,,500,red,red,-1,-1,poldrack-single-stim,535,626879,0.0-534.0,e44bab6e-9055-48b3-b3d1-c9f485bbc19e,,500,500,fixation,,<div class = centerbox><div class = fixation>+</div></div>,none,500,test,,,,,,,,,,,819,66,poldrack-categorize,536,629392,0.0-535.0,e44bab6e-9055-48b3-b3d1-c9f485bbc19e,,1500,250,stim,,"<div class = centerbox><div class = stroop-stim style = ""color:red"">BLUE</div></div>","66,71,82",1500,test,,,incongruent,FALSE,82,,,500,red,blue,-1,-1,poldrack-single-stim,537,630150,0.0-536.0,e44bab6e-9055-48b3-b3d1-c9f485bbc19e,,500,500,fixation,,<div class = centerbox><div class = fixation>+</div></div>,none,500,test,,,,,,,,,,,787,66,poldrack-categorize,538,632660,0.0-537.0,e44bab6e-9055-48b3-b3d1-c9f485bbc19e,,1500,250,stim,,"<div class = centerbox><div class = stroop-stim style = ""color:blue"">RED</div></div>","66,71,82",1500,test,,,incongruent,TRUE,66,,,500,blue,red,-1,-1,poldrack-single-stim,539,633419,0.0-538.0,e44bab6e-9055-48b3-b3d1-c9f485bbc19e,,500,500,fixation,,<div class = centerbox><div class = fixation>+</div></div>,none,500,test,,,,,,,,,,,778,66,poldrack-categorize,540,635929,0.0-539.0,e44bab6e-9055-48b3-b3d1-c9f485bbc19e,,1500,250,stim,,"<div class = centerbox><div class = stroop-stim style = ""color:blue"">GREEN</div></div>","66,71,82",1500,test,,,incongruent,TRUE,66,,,500,blue,green,-1,-1,poldrack-single-stim,541,636689,0.0-540.0,e44bab6e-9055-48b3-b3d1-c9f485bbc19e,,500,500,fixation,,<div class = centerbox><div class = fixation>+</div></div>,none,500,test,,,,,,,,,,,705,82,poldrack-categorize,542,639202,0.0-541.0,e44bab6e-9055-48b3-b3d1-c9f485bbc19e,,1500,250,stim,,"<div class = centerbox><div class = stroop-stim style = ""color:red"">RED</div></div>","66,71,82",1500,test,,,congruent,TRUE,82,,,500,red,red,-1,-1,poldrack-single-stim,543,639962,0.0-542.0,e44bab6e-9055-48b3-b3d1-c9f485bbc19e,,500,500,fixation,,<div class = centerbox><div class = fixation>+</div></div>,none,500,test,,,,,,,,,,,905,82,poldrack-categorize,544,642470,0.0-543.0,e44bab6e-9055-48b3-b3d1-c9f485bbc19e,,1500,250,stim,,"<div class = centerbox><div class = stroop-stim style = ""color:blue"">RED</div></div>","66,71,82",1500,test,,,incongruent,FALSE,66,,,500,blue,red,-1,-1,poldrack-single-stim,545,643229,0.0-544.0,e44bab6e-9055-48b3-b3d1-c9f485bbc19e,,500,500,fixation,,<div class = centerbox><div class = fixation>+</div></div>,none,500,test,,,,,,,,,,,701,71,poldrack-categorize,546,645738,0.0-545.0,e44bab6e-9055-48b3-b3d1-c9f485bbc19e,,1500,250,stim,,"<div class = centerbox><div class = stroop-stim style = ""color:green"">GREEN</div></div>","66,71,82",1500,test,,,congruent,TRUE,71,,,500,green,green,-1,-1,poldrack-single-stim,547,646499,0.0-546.0,e44bab6e-9055-48b3-b3d1-c9f485bbc19e,,500,500,fixation,,<div class = centerbox><div class = fixation>+</div></div>,none,500,test,,,,,,,,,,,574,66,poldrack-categorize,548,649012,0.0-547.0,e44bab6e-9055-48b3-b3d1-c9f485bbc19e,,1500,250,stim,,"<div class = centerbox><div class = stroop-stim style = ""color:blue"">BLUE</div></div>","66,71,82",1500,test,,,congruent,TRUE,66,,,500,blue,blue,-1,-1,poldrack-single-stim,549,649773,0.0-548.0,e44bab6e-9055-48b3-b3d1-c9f485bbc19e,,500,500,fixation,,<div class = centerbox><div class = fixation>+</div></div>,none,500,test,,,,,,,,,,,732,71,poldrack-categorize,550,652286,0.0-549.0,e44bab6e-9055-48b3-b3d1-c9f485bbc19e,,1500,250,stim,,"<div class = centerbox><div class = stroop-stim style = ""color:green"">RED</div></div>","66,71,82",1500,test,,,incongruent,TRUE,71,,,500,green,red,-1,-1,poldrack-single-stim,551,653045,0.0-550.0,e44bab6e-9055-48b3-b3d1-c9f485bbc19e,,500,500,fixation,,<div class = centerbox><div class = fixation>+</div></div>,none,500,test,,,,,,,,,,,566,71,poldrack-categorize,552,655554,0.0-551.0,e44bab6e-9055-48b3-b3d1-c9f485bbc19e,,1500,250,stim,,"<div class = centerbox><div class = stroop-stim style = ""color:green"">RED</div></div>","66,71,82",1500,test,,,incongruent,TRUE,71,,,500,green,red,-1,-1,poldrack-single-stim,553,656313,0.0-552.0,e44bab6e-9055-48b3-b3d1-c9f485bbc19e,,500,500,fixation,,<div class = centerbox><div class = fixation>+</div></div>,none,500,test,,,,,,,,,,,577,82,poldrack-categorize,554,658822,0.0-553.0,e44bab6e-9055-48b3-b3d1-c9f485bbc19e,,1500,250,stim,,"<div class = centerbox><div class = stroop-stim style = ""color:red"">RED</div></div>","66,71,82",1500,test,,,congruent,TRUE,82,,,500,red,red,-1,-1,poldrack-single-stim,555,659581,0.0-554.0,e44bab6e-9055-48b3-b3d1-c9f485bbc19e,,500,500,fixation,,<div class = centerbox><div class = fixation>+</div></div>,none,500,test,,,,,,,,,,,678,66,poldrack-categorize,556,662090,0.0-555.0,e44bab6e-9055-48b3-b3d1-c9f485bbc19e,,1500,250,stim,,"<div class = centerbox><div class = stroop-stim style = ""color:blue"">RED</div></div>","66,71,82",1500,test,,,incongruent,TRUE,66,,,500,blue,red,-1,-1,poldrack-single-stim,557,662849,0.0-556.0,e44bab6e-9055-48b3-b3d1-c9f485bbc19e,,500,500,fixation,,<div class = centerbox><div class = fixation>+</div></div>,none,500,test,,,,,,,,,,,841,66,poldrack-categorize,558,665358,0.0-557.0,e44bab6e-9055-48b3-b3d1-c9f485bbc19e,,1500,250,stim,,"<div class = centerbox><div class = stroop-stim style = ""color:blue"">GREEN</div></div>","66,71,82",1500,test,,,incongruent,TRUE,66,,,500,blue,green,-1,-1,poldrack-single-stim,559,666113,0.0-558.0,e44bab6e-9055-48b3-b3d1-c9f485bbc19e,,500,500,fixation,,<div class = centerbox><div class = fixation>+</div></div>,none,500,test,,,,,,,,,,,639,82,poldrack-categorize,560,668626,0.0-559.0,e44bab6e-9055-48b3-b3d1-c9f485bbc19e,,1500,250,stim,,"<div class = centerbox><div class = stroop-stim style = ""color:red"">BLUE</div></div>","66,71,82",1500,test,,,incongruent,TRUE,82,,,500,red,blue,-1,-1,poldrack-single-stim,561,669387,0.0-560.0,e44bab6e-9055-48b3-b3d1-c9f485bbc19e,,500,500,fixation,,<div class = centerbox><div class = fixation>+</div></div>,none,500,test,,,,,,,,,,,885,82,poldrack-categorize,562,671900,0.0-561.0,e44bab6e-9055-48b3-b3d1-c9f485bbc19e,,1500,250,stim,,"<div class = centerbox><div class = stroop-stim style = ""color:red"">GREEN</div></div>","66,71,82",1500,test,,,incongruent,TRUE,82,,,500,red,green,-1,-1,poldrack-single-stim,563,672660,0.0-562.0,e44bab6e-9055-48b3-b3d1-c9f485bbc19e,,500,500,fixation,,<div class = centerbox><div class = fixation>+</div></div>,none,500,test,,,,,,,,,,,490,82,poldrack-categorize,564,675174,0.0-563.0,e44bab6e-9055-48b3-b3d1-c9f485bbc19e,,1500,250,stim,,"<div class = centerbox><div class = stroop-stim style = ""color:red"">RED</div></div>","66,71,82",1500,test,,,congruent,TRUE,82,,,500,red,red,-1,-1,poldrack-single-stim,565,675931,0.0-564.0,e44bab6e-9055-48b3-b3d1-c9f485bbc19e,,500,500,fixation,,<div class = centerbox><div class = fixation>+</div></div>,none,500,test,,,,,,,,,,,654,66,poldrack-categorize,566,678436,0.0-565.0,e44bab6e-9055-48b3-b3d1-c9f485bbc19e,,1500,250,stim,,"<div class = centerbox><div class = stroop-stim style = ""color:blue"">BLUE</div></div>","66,71,82",1500,test,,,congruent,TRUE,66,,,500,blue,blue,-1,-1,poldrack-single-stim,567,679196,0.0-566.0,e44bab6e-9055-48b3-b3d1-c9f485bbc19e,,500,500,fixation,,<div class = centerbox><div class = fixation>+</div></div>,none,500,test,,,,,,,,,,,626,66,poldrack-categorize,568,681707,0.0-567.0,e44bab6e-9055-48b3-b3d1-c9f485bbc19e,,1500,250,stim,,"<div class = centerbox><div class = stroop-stim style = ""color:blue"">BLUE</div></div>","66,71,82",1500,test,,,congruent,TRUE,66,,,500,blue,blue,-1,-1,poldrack-single-stim,569,682464,0.0-568.0,e44bab6e-9055-48b3-b3d1-c9f485bbc19e,,500,500,fixation,,<div class = centerbox><div class = fixation>+</div></div>,none,500,test,,,,,,,,,,,638,82,poldrack-categorize,570,684977,0.0-569.0,e44bab6e-9055-48b3-b3d1-c9f485bbc19e,,1500,250,stim,,"<div class = centerbox><div class = stroop-stim style = ""color:red"">GREEN</div></div>","66,71,82",1500,test,,,incongruent,TRUE,82,,,500,red,green,-1,-1,poldrack-single-stim,571,685732,0.0-570.0,e44bab6e-9055-48b3-b3d1-c9f485bbc19e,,500,500,fixation,,<div class = centerbox><div class = fixation>+</div></div>,none,500,test,,,,,,,,,,,378,66,poldrack-categorize,572,688245,0.0-571.0,e44bab6e-9055-48b3-b3d1-c9f485bbc19e,,1500,250,stim,,"<div class = centerbox><div class = stroop-stim style = ""color:blue"">RED</div></div>","66,71,82",1500,test,,,incongruent,TRUE,66,,,500,blue,red,-1,-1,poldrack-single-stim,573,689003,0.0-572.0,e44bab6e-9055-48b3-b3d1-c9f485bbc19e,,500,500,fixation,,<div class = centerbox><div class = fixation>+</div></div>,none,500,test,,,,,,,,,,,661,66,poldrack-categorize,574,691513,0.0-573.0,e44bab6e-9055-48b3-b3d1-c9f485bbc19e,,1500,250,stim,,"<div class = centerbox><div class = stroop-stim style = ""color:blue"">BLUE</div></div>","66,71,82",1500,test,,,congruent,TRUE,66,,,500,blue,blue,-1,-1,poldrack-single-stim,575,692272,0.0-574.0,e44bab6e-9055-48b3-b3d1-c9f485bbc19e,,500,500,fixation,,<div class = centerbox><div class = fixation>+</div></div>,none,500,test,,,,,,,,,,,665,82,poldrack-categorize,576,694781,0.0-575.0,e44bab6e-9055-48b3-b3d1-c9f485bbc19e,,1500,250,stim,,"<div class = centerbox><div class = stroop-stim style = ""color:red"">RED</div></div>","66,71,82",1500,test,,,congruent,TRUE,82,,,500,red,red,-1,-1,poldrack-single-stim,577,695540,0.0-576.0,e44bab6e-9055-48b3-b3d1-c9f485bbc19e,,500,500,fixation,,<div class = centerbox><div class = fixation>+</div></div>,none,500,test,,,,,,,,,,,853,66,poldrack-categorize,578,698049,0.0-577.0,e44bab6e-9055-48b3-b3d1-c9f485bbc19e,,1500,250,stim,,"<div class = centerbox><div class = stroop-stim style = ""color:red"">BLUE</div></div>","66,71,82",1500,test,,,incongruent,FALSE,82,,,500,red,blue,-1,-1,poldrack-single-stim,579,698810,0.0-578.0,e44bab6e-9055-48b3-b3d1-c9f485bbc19e,,500,500,fixation,,<div class = centerbox><div class = fixation>+</div></div>,none,500,test,,,,,,,,,,,819,66,poldrack-categorize,580,701323,0.0-579.0,e44bab6e-9055-48b3-b3d1-c9f485bbc19e,,1500,250,stim,,"<div class = centerbox><div class = stroop-stim style = ""color:green"">BLUE</div></div>","66,71,82",1500,test,,,incongruent,FALSE,71,,,500,green,blue,-1,-1,poldrack-single-stim,581,702081,0.0-580.0,e44bab6e-9055-48b3-b3d1-c9f485bbc19e,,500,500,fixation,,<div class = centerbox><div class = fixation>+</div></div>,none,500,test,,,,,,,,,,,966,82,poldrack-categorize,582,704591,0.0-581.0,e44bab6e-9055-48b3-b3d1-c9f485bbc19e,,1500,250,stim,,"<div class = centerbox><div class = stroop-stim style = ""color:red"">GREEN</div></div>","66,71,82",1500,test,,,incongruent,TRUE,82,,,500,red,green,-1,-1,poldrack-single-stim,583,705349,0.0-582.0,e44bab6e-9055-48b3-b3d1-c9f485bbc19e,,500,500,fixation,,<div class = centerbox><div class = fixation>+</div></div>,none,500,test,,,,,,,,,,,714,71,poldrack-categorize,584,707859,0.0-583.0,e44bab6e-9055-48b3-b3d1-c9f485bbc19e,,1500,250,stim,,"<div class = centerbox><div class = stroop-stim style = ""color:green"">GREEN</div></div>","66,71,82",1500,test,,,congruent,TRUE,71,,,500,green,green,-1,-1,poldrack-single-stim,585,708618,0.0-584.0,e44bab6e-9055-48b3-b3d1-c9f485bbc19e,,500,500,fixation,,<div class = centerbox><div class = fixation>+</div></div>,none,500,test,,,,,,,,,,,557,82,poldrack-categorize,586,711123,0.0-585.0,e44bab6e-9055-48b3-b3d1-c9f485bbc19e,,1500,250,stim,,"<div class = centerbox><div class = stroop-stim style = ""color:red"">RED</div></div>","66,71,82",1500,test,,,congruent,TRUE,82,,,500,red,red,-1,-1,poldrack-single-stim,587,711882,0.0-586.0,e44bab6e-9055-48b3-b3d1-c9f485bbc19e,,500,500,fixation,,<div class = centerbox><div class = fixation>+</div></div>,none,500,test,,,,,,,,,,,610,71,poldrack-categorize,588,714395,0.0-587.0,e44bab6e-9055-48b3-b3d1-c9f485bbc19e,,1500,250,stim,,"<div class = centerbox><div class = stroop-stim style = ""color:green"">GREEN</div></div>","66,71,82",1500,test,,,congruent,TRUE,71,,,500,green,green,-1,-1,poldrack-single-stim,589,715156,0.0-588.0,e44bab6e-9055-48b3-b3d1-c9f485bbc19e,,500,500,fixation,,<div class = centerbox><div class = fixation>+</div></div>,none,500,test,,,,,,,,,,,897,82,poldrack-categorize,590,717669,0.0-589.0,e44bab6e-9055-48b3-b3d1-c9f485bbc19e,,1500,250,stim,,"<div class = centerbox><div class = stroop-stim style = ""color:red"">BLUE</div></div>","66,71,82",1500,test,,,incongruent,TRUE,82,,,500,red,blue,-1,-1,poldrack-single-stim,591,718427,0.0-590.0,e44bab6e-9055-48b3-b3d1-c9f485bbc19e,,500,500,fixation,,<div class = centerbox><div class = fixation>+</div></div>,none,500,test,,,,,,,,,,,451,82,poldrack-categorize,592,720937,0.0-591.0,e44bab6e-9055-48b3-b3d1-c9f485bbc19e,,1500,250,stim,,"<div class = centerbox><div class = stroop-stim style = ""color:red"">RED</div></div>","66,71,82",1500,test,,,congruent,TRUE,82,,,500,red,red,-1,-1,poldrack-single-stim,593,721695,0.0-592.0,e44bab6e-9055-48b3-b3d1-c9f485bbc19e,,500,500,fixation,,<div class = centerbox><div class = fixation>+</div></div>,none,500,test,,,,,,,,,,,975,66,poldrack-categorize,594,724205,0.0-593.0,e44bab6e-9055-48b3-b3d1-c9f485bbc19e,,1500,250,stim,,"<div class = centerbox><div class = stroop-stim style = ""color:blue"">BLUE</div></div>","66,71,82",1500,test,,,congruent,TRUE,66,,,500,blue,blue,-1,-1,poldrack-single-stim,595,724966,0.0-594.0,e44bab6e-9055-48b3-b3d1-c9f485bbc19e,,500,500,fixation,,<div class = centerbox><div class = fixation>+</div></div>,none,500,test,,,,,,,,,,,950,71,poldrack-categorize,596,727473,0.0-595.0,e44bab6e-9055-48b3-b3d1-c9f485bbc19e,,1500,250,stim,,"<div class = centerbox><div class = stroop-stim style = ""color:green"">GREEN</div></div>","66,71,82",1500,test,,,congruent,TRUE,71,,,500,green,green,-1,-1,poldrack-single-stim,597,728233,0.0-596.0,e44bab6e-9055-48b3-b3d1-c9f485bbc19e,,500,500,fixation,,<div class = centerbox><div class = fixation>+</div></div>,none,500,test,,,,,,,,,,,529,82,poldrack-categorize,598,730747,0.0-597.0,e44bab6e-9055-48b3-b3d1-c9f485bbc19e,,1500,250,stim,,"<div class = centerbox><div class = stroop-stim style = ""color:red"">RED</div></div>","66,71,82",1500,test,,,congruent,TRUE,82,,,500,red,red,-1,-1,poldrack-single-stim,599,731507,0.0-598.0,e44bab6e-9055-48b3-b3d1-c9f485bbc19e,,500,500,fixation,,<div class = centerbox><div class = fixation>+</div></div>,none,500,test,,,,,,,,,,,1159,82,poldrack-categorize,600,734021,0.0-599.0,e44bab6e-9055-48b3-b3d1-c9f485bbc19e,,1500,250,stim,,"<div class = centerbox><div class = stroop-stim style = ""color:red"">GREEN</div></div>","66,71,82",1500,test,,,incongruent,TRUE,82,,,500,red,green,-1,-1,poldrack-single-stim,601,734779,0.0-600.0,e44bab6e-9055-48b3-b3d1-c9f485bbc19e,,500,500,fixation,,<div class = centerbox><div class = fixation>+</div></div>,none,500,test,,,,,,,,,,,1075,66,poldrack-categorize,602,737289,0.0-601.0,e44bab6e-9055-48b3-b3d1-c9f485bbc19e,,1500,250,stim,,"<div class = centerbox><div class = stroop-stim style = ""color:blue"">GREEN</div></div>","66,71,82",1500,test,,,incongruent,TRUE,66,,,500,blue,green,-1,-1,poldrack-single-stim,603,738047,0.0-602.0,e44bab6e-9055-48b3-b3d1-c9f485bbc19e,,500,500,fixation,,<div class = centerbox><div class = fixation>+</div></div>,none,500,test,,,,,,,,,,,399,82,poldrack-categorize,604,740556,0.0-603.0,e44bab6e-9055-48b3-b3d1-c9f485bbc19e,,1500,250,stim,,"<div class = centerbox><div class = stroop-stim style = ""color:red"">RED</div></div>","66,71,82",1500,test,,,congruent,TRUE,82,,,500,red,red,-1,-1,poldrack-single-stim,605,741315,0.0-604.0,e44bab6e-9055-48b3-b3d1-c9f485bbc19e,,500,500,fixation,,<div class = centerbox><div class = fixation>+</div></div>,none,500,test,,,,,,,,,,,947,82,poldrack-categorize,606,743823,0.0-605.0,e44bab6e-9055-48b3-b3d1-c9f485bbc19e,,1500,250,stim,,"<div class = centerbox><div class = stroop-stim style = ""color:red"">BLUE</div></div>","66,71,82",1500,test,,,incongruent,TRUE,82,,,500,red,blue,-1,-1,poldrack-single-stim,607,744579,0.0-606.0,e44bab6e-9055-48b3-b3d1-c9f485bbc19e,,500,500,fixation,,<div class = centerbox><div class = fixation>+</div></div>,none,500,test,,,,,,,,,,,790,71,poldrack-categorize,608,747093,0.0-607.0,e44bab6e-9055-48b3-b3d1-c9f485bbc19e,,1500,250,stim,,"<div class = centerbox><div class = stroop-stim style = ""color:green"">BLUE</div></div>","66,71,82",1500,test,,,incongruent,TRUE,71,,,500,green,blue,-1,-1,poldrack-single-stim,609,747852,0.0-608.0,e44bab6e-9055-48b3-b3d1-c9f485bbc19e,,500,500,fixation,,<div class = centerbox><div class = fixation>+</div></div>,none,500,test,,,,,,,,,,,823,66,poldrack-categorize,610,750366,0.0-609.0,e44bab6e-9055-48b3-b3d1-c9f485bbc19e,,1500,250,stim,,"<div class = centerbox><div class = stroop-stim style = ""color:blue"">RED</div></div>","66,71,82",1500,test,,,incongruent,TRUE,66,,,500,blue,red,-1,-1,poldrack-single-stim,611,751124,0.0-610.0,e44bab6e-9055-48b3-b3d1-c9f485bbc19e,,500,500,fixation,,<div class = centerbox><div class = fixation>+</div></div>,none,500,test,,,,,,,,,,,728,66,poldrack-categorize,612,753634,0.0-611.0,e44bab6e-9055-48b3-b3d1-c9f485bbc19e,,1500,250,stim,,"<div class = centerbox><div class = stroop-stim style = ""color:blue"">BLUE</div></div>","66,71,82",1500,test,,,congruent,TRUE,66,,,500,blue,blue,-1,-1,poldrack-single-stim,613,754395,0.0-612.0,e44bab6e-9055-48b3-b3d1-c9f485bbc19e,,500,500,fixation,,<div class = centerbox><div class = fixation>+</div></div>,none,500,test,,,,,,,,,,,696,66,poldrack-categorize,614,756908,0.0-613.0,e44bab6e-9055-48b3-b3d1-c9f485bbc19e,,1500,250,stim,,"<div class = centerbox><div class = stroop-stim style = ""color:green"">BLUE</div></div>","66,71,82",1500,test,,,incongruent,FALSE,71,,,500,green,blue,-1,-1,poldrack-single-stim,615,757663,0.0-614.0,e44bab6e-9055-48b3-b3d1-c9f485bbc19e,,500,500,fixation,,<div class = centerbox><div class = fixation>+</div></div>,none,500,test,,,,,,,,,,,642,82,poldrack-categorize,616,760173,0.0-615.0,e44bab6e-9055-48b3-b3d1-c9f485bbc19e,,1500,250,stim,,"<div class = centerbox><div class = stroop-stim style = ""color:red"">RED</div></div>","66,71,82",1500,test,,,congruent,TRUE,82,,,500,red,red,-1,-1,poldrack-single-stim,617,760931,0.0-616.0,e44bab6e-9055-48b3-b3d1-c9f485bbc19e,,500,500,fixation,,<div class = centerbox><div class = fixation>+</div></div>,none,500,test,,,,,,,,,,,645,71,poldrack-categorize,618,763444,0.0-617.0,e44bab6e-9055-48b3-b3d1-c9f485bbc19e,,1500,250,stim,,"<div class = centerbox><div class = stroop-stim style = ""color:green"">GREEN</div></div>","66,71,82",1500,test,,,congruent,TRUE,71,,,500,green,green,-1,-1,poldrack-single-stim,619,764205,0.0-618.0,e44bab6e-9055-48b3-b3d1-c9f485bbc19e,,500,500,fixation,,<div class = centerbox><div class = fixation>+</div></div>,none,500,test,,,,,,,,,,,836,66,poldrack-categorize,620,766718,0.0-619.0,e44bab6e-9055-48b3-b3d1-c9f485bbc19e,,1500,250,stim,,"<div class = centerbox><div class = stroop-stim style = ""color:blue"">GREEN</div></div>","66,71,82",1500,test,,,incongruent,TRUE,66,,,500,blue,green,-1,-1,poldrack-single-stim,621,767476,0.0-620.0,e44bab6e-9055-48b3-b3d1-c9f485bbc19e,,500,500,fixation,,<div class = centerbox><div class = fixation>+</div></div>,none,500,test,,,,,,,,,,,663,82,poldrack-categorize,622,769986,0.0-621.0,e44bab6e-9055-48b3-b3d1-c9f485bbc19e,,1500,250,stim,,"<div class = centerbox><div class = stroop-stim style = ""color:red"">GREEN</div></div>","66,71,82",1500,test,,,incongruent,TRUE,82,,,500,red,green,-1,-1,poldrack-single-stim,623,770744,0.0-622.0,e44bab6e-9055-48b3-b3d1-c9f485bbc19e,,500,500,fixation,,<div class = centerbox><div class = fixation>+</div></div>,none,500,test,,,,,,,,,,,723,82,poldrack-categorize,624,773254,0.0-623.0,e44bab6e-9055-48b3-b3d1-c9f485bbc19e,,1500,250,stim,,"<div class = centerbox><div class = stroop-stim style = ""color:red"">GREEN</div></div>","66,71,82",1500,test,,,incongruent,TRUE,82,,,500,red,green,-1,-1,poldrack-single-stim,625,774014,0.0-624.0,e44bab6e-9055-48b3-b3d1-c9f485bbc19e,,500,500,fixation,,<div class = centerbox><div class = fixation>+</div></div>,none,500,test,,,,,,,,,,,1131,82,poldrack-categorize,626,776528,0.0-625.0,e44bab6e-9055-48b3-b3d1-c9f485bbc19e,,1500,250,stim,,"<div class = centerbox><div class = stroop-stim style = ""color:red"">BLUE</div></div>","66,71,82",1500,test,,,incongruent,TRUE,82,,,500,red,blue,-1,-1,poldrack-single-stim,627,777288,0.0-626.0,e44bab6e-9055-48b3-b3d1-c9f485bbc19e,,500,500,fixation,,<div class = centerbox><div class = fixation>+</div></div>,none,500,test,,,,,,,,,,,679,66,poldrack-categorize,628,779801,0.0-627.0,e44bab6e-9055-48b3-b3d1-c9f485bbc19e,,1500,250,stim,,"<div class = centerbox><div class = stroop-stim style = ""color:blue"">BLUE</div></div>","66,71,82",1500,test,,,congruent,TRUE,66,,,500,blue,blue,-1,-1,poldrack-single-stim,629,780562,0.0-628.0,e44bab6e-9055-48b3-b3d1-c9f485bbc19e,,500,500,fixation,,<div class = centerbox><div class = fixation>+</div></div>,none,500,test,,,,,,,,,,,631,66,poldrack-categorize,630,783075,0.0-629.0,e44bab6e-9055-48b3-b3d1-c9f485bbc19e,,1500,250,stim,,"<div class = centerbox><div class = stroop-stim style = ""color:blue"">BLUE</div></div>","66,71,82",1500,test,,,congruent,TRUE,66,,,500,blue,blue,-1,-1,poldrack-single-stim,631,783833,0.0-630.0,e44bab6e-9055-48b3-b3d1-c9f485bbc19e,,500,500,fixation,,<div class = centerbox><div class = fixation>+</div></div>,none,500,test,,,,,,,,,,,625,71,poldrack-categorize,632,786345,0.0-631.0,e44bab6e-9055-48b3-b3d1-c9f485bbc19e,,1500,250,stim,,"<div class = centerbox><div class = stroop-stim style = ""color:green"">BLUE</div></div>","66,71,82",1500,test,,,incongruent,TRUE,71,,,500,green,blue,57718,,survey-text,633,844320,0.0-633.0,e44bab6e-9055-48b3-b3d1-c9f485bbc19e,,,,post task questions,,,,,,,,,,,"{""Q0"":""I was asked to read the color of the ink not the color that was spelled out and chose either r, b, or g depending on the color of the ink."",""Q1"":""No\n""}",,,,,1376,13,poldrack-text,634,846700,0.0-634.0,e44bab6e-9055-48b3-b3d1-c9f485bbc19e,<div class = centerbox><p class = center-block-text>Thanks for completing this task!</p><p class = center-block-text>Press <strong>enter</strong> to continue.</p></div>,1376,0,end,,,,,,,,,,,,stroop,,,,TRUE158522,13,text,635,1005266,0.0-635.0,e44bab6e-9055-48b3-b3d1-c9f485bbc19e,,,,,,,,,,,,,,,,,,,,