rt,key_press,trial_type,trial_index,time_elapsed,internal_node_id,subject,text,block_duration,timing_post_trial,trial_id,view_history,stimulus,possible_responses,stim_duration,exp_stage,stim_place,stim_id,condition,correct,correct_response,responses,exp_id,feedback_duration,stim_color,stim_word,credit_var1763,13,text,0,1764,0.0-0.0,537e5cc6-76ec-4b29-863f-59786ad91f0f,,,,,,,,,,,,,,,,,,,,2311,13,poldrack-text,389,632114,0.0-388.0-0.0,537e5cc6-76ec-4b29-863f-59786ad91f0f,<div class = centerbox><p class = center-block-text>Done with instructions. Press <strong>enter</strong> to continue.</p></div>,2311,0,instruction,,,,,,,,,,,,,,,,39405,,poldrack-instructions,390,671519,0.0-388.0-1.0,537e5cc6-76ec-4b29-863f-59786ad91f0f,,,,instruction,"[{""page_index"":0,""viewing_time"":39404}]",,,,,,,,,,,,,,,7248,13,poldrack-text,391,679775,0.0-389.0,537e5cc6-76ec-4b29-863f-59786ad91f0f,"<div class = centerbox><p class = block-text>We will start with a few practice trials. Remember, press the key corresponding to the <strong>ink</strong> color of the word: ""r"" for words colored red, ""b"" for words colored blue, and ""g"" for words colored green.</p><p class = block-text>Press <strong>enter</strong> to begin practice.</p></div>",7248,1000,practice_intro,,,,,,,,,,,,,,,,-1,-1,poldrack-single-stim,392,681280,0.0-390.0,537e5cc6-76ec-4b29-863f-59786ad91f0f,,500,500,fixation,,<div class = centerbox><div class = fixation>+</div></div>,none,500,practice,,,,,,,,,,,1331,66,poldrack-categorize,393,683795,0.0-391.0,537e5cc6-76ec-4b29-863f-59786ad91f0f,,1500,250,stim,,"<div class = centerbox><div class = stroop-stim style = ""color:blue"">BLUE</div></div>","66,71,82",1500,practice,,,congruent,TRUE,66,,,500,blue,blue,-1,-1,poldrack-single-stim,394,684551,0.0-392.0,537e5cc6-76ec-4b29-863f-59786ad91f0f,,500,500,fixation,,<div class = centerbox><div class = fixation>+</div></div>,none,500,practice,,,,,,,,,,,805,71,poldrack-categorize,395,687064,0.0-393.0,537e5cc6-76ec-4b29-863f-59786ad91f0f,,1500,250,stim,,"<div class = centerbox><div class = stroop-stim style = ""color:red"">GREEN</div></div>","66,71,82",1500,practice,,,incongruent,FALSE,82,,,500,red,green,-1,-1,poldrack-single-stim,396,687823,0.0-394.0,537e5cc6-76ec-4b29-863f-59786ad91f0f,,500,500,fixation,,<div class = centerbox><div class = fixation>+</div></div>,none,500,practice,,,,,,,,,,,1390,82,poldrack-categorize,397,690333,0.0-395.0,537e5cc6-76ec-4b29-863f-59786ad91f0f,,1500,250,stim,,"<div class = centerbox><div class = stroop-stim style = ""color:red"">RED</div></div>","66,71,82",1500,practice,,,congruent,TRUE,82,,,500,red,red,-1,-1,poldrack-single-stim,398,691093,0.0-396.0,537e5cc6-76ec-4b29-863f-59786ad91f0f,,500,500,fixation,,<div class = centerbox><div class = fixation>+</div></div>,none,500,practice,,,,,,,,,,,1160,71,poldrack-categorize,399,693604,0.0-397.0,537e5cc6-76ec-4b29-863f-59786ad91f0f,,1500,250,stim,,"<div class = centerbox><div class = stroop-stim style = ""color:green"">GREEN</div></div>","66,71,82",1500,practice,,,congruent,TRUE,71,,,500,green,green,-1,-1,poldrack-single-stim,400,694360,0.0-398.0,537e5cc6-76ec-4b29-863f-59786ad91f0f,,500,500,fixation,,<div class = centerbox><div class = fixation>+</div></div>,none,500,practice,,,,,,,,,,,-1,-1,poldrack-categorize,401,696874,0.0-399.0,537e5cc6-76ec-4b29-863f-59786ad91f0f,,1500,250,stim,,"<div class = centerbox><div class = stroop-stim style = ""color:green"">RED</div></div>","66,71,82",1500,practice,,,incongruent,FALSE,71,,,500,green,red,-1,-1,poldrack-single-stim,402,697635,0.0-400.0,537e5cc6-76ec-4b29-863f-59786ad91f0f,,500,500,fixation,,<div class = centerbox><div class = fixation>+</div></div>,none,500,practice,,,,,,,,,,,1337,82,poldrack-categorize,403,700148,0.0-401.0,537e5cc6-76ec-4b29-863f-59786ad91f0f,,1500,250,stim,,"<div class = centerbox><div class = stroop-stim style = ""color:red"">GREEN</div></div>","66,71,82",1500,practice,,,incongruent,TRUE,82,,,500,red,green,-1,-1,poldrack-single-stim,404,700909,0.0-402.0,537e5cc6-76ec-4b29-863f-59786ad91f0f,,500,500,fixation,,<div class = centerbox><div class = fixation>+</div></div>,none,500,practice,,,,,,,,,,,728,82,poldrack-categorize,405,703422,0.0-403.0,537e5cc6-76ec-4b29-863f-59786ad91f0f,,1500,250,stim,,"<div class = centerbox><div class = stroop-stim style = ""color:red"">RED</div></div>","66,71,82",1500,practice,,,congruent,TRUE,82,,,500,red,red,-1,-1,poldrack-single-stim,406,704182,0.0-404.0,537e5cc6-76ec-4b29-863f-59786ad91f0f,,500,500,fixation,,<div class = centerbox><div class = fixation>+</div></div>,none,500,practice,,,,,,,,,,,878,66,poldrack-categorize,407,706696,0.0-405.0,537e5cc6-76ec-4b29-863f-59786ad91f0f,,1500,250,stim,,"<div class = centerbox><div class = stroop-stim style = ""color:green"">BLUE</div></div>","66,71,82",1500,practice,,,incongruent,FALSE,71,,,500,green,blue,-1,-1,poldrack-single-stim,408,707456,0.0-406.0,537e5cc6-76ec-4b29-863f-59786ad91f0f,,500,500,fixation,,<div class = centerbox><div class = fixation>+</div></div>,none,500,practice,,,,,,,,,,,1167,66,poldrack-categorize,409,709964,0.0-407.0,537e5cc6-76ec-4b29-863f-59786ad91f0f,,1500,250,stim,,"<div class = centerbox><div class = stroop-stim style = ""color:blue"">BLUE</div></div>","66,71,82",1500,practice,,,congruent,TRUE,66,,,500,blue,blue,-1,-1,poldrack-single-stim,410,710725,0.0-408.0,537e5cc6-76ec-4b29-863f-59786ad91f0f,,500,500,fixation,,<div class = centerbox><div class = fixation>+</div></div>,none,500,practice,,,,,,,,,,,-1,-1,poldrack-categorize,411,713235,0.0-409.0,537e5cc6-76ec-4b29-863f-59786ad91f0f,,1500,250,stim,,"<div class = centerbox><div class = stroop-stim style = ""color:red"">RED</div></div>","66,71,82",1500,practice,,,congruent,FALSE,82,,,500,red,red,-1,-1,poldrack-single-stim,412,713990,0.0-410.0,537e5cc6-76ec-4b29-863f-59786ad91f0f,,500,500,fixation,,<div class = centerbox><div class = fixation>+</div></div>,none,500,practice,,,,,,,,,,,1017,71,poldrack-categorize,413,716500,0.0-411.0,537e5cc6-76ec-4b29-863f-59786ad91f0f,,1500,250,stim,,"<div class = centerbox><div class = stroop-stim style = ""color:green"">GREEN</div></div>","66,71,82",1500,practice,,,congruent,TRUE,71,,,500,green,green,-1,-1,poldrack-single-stim,414,717255,0.0-412.0,537e5cc6-76ec-4b29-863f-59786ad91f0f,,500,500,fixation,,<div class = centerbox><div class = fixation>+</div></div>,none,500,practice,,,,,,,,,,,701,71,poldrack-categorize,415,719768,0.0-413.0,537e5cc6-76ec-4b29-863f-59786ad91f0f,,1500,250,stim,,"<div class = centerbox><div class = stroop-stim style = ""color:green"">BLUE</div></div>","66,71,82",1500,practice,,,incongruent,TRUE,71,,,500,green,blue,-1,-1,poldrack-single-stim,416,720528,0.0-414.0,537e5cc6-76ec-4b29-863f-59786ad91f0f,,500,500,fixation,,<div class = centerbox><div class = fixation>+</div></div>,none,500,practice,,,,,,,,,,,-1,-1,poldrack-categorize,417,723042,0.0-415.0,537e5cc6-76ec-4b29-863f-59786ad91f0f,,1500,250,stim,,"<div class = centerbox><div class = stroop-stim style = ""color:blue"">RED</div></div>","66,71,82",1500,practice,,,incongruent,FALSE,66,,,500,blue,red,-1,-1,poldrack-single-stim,418,723802,0.0-416.0,537e5cc6-76ec-4b29-863f-59786ad91f0f,,500,500,fixation,,<div class = centerbox><div class = fixation>+</div></div>,none,500,practice,,,,,,,,,,,-1,-1,poldrack-categorize,419,726315,0.0-417.0,537e5cc6-76ec-4b29-863f-59786ad91f0f,,1500,250,stim,,"<div class = centerbox><div class = stroop-stim style = ""color:green"">RED</div></div>","66,71,82",1500,practice,,,incongruent,FALSE,71,,,500,green,red,-1,-1,poldrack-single-stim,420,727076,0.0-418.0,537e5cc6-76ec-4b29-863f-59786ad91f0f,,500,500,fixation,,<div class = centerbox><div class = fixation>+</div></div>,none,500,practice,,,,,,,,,,,798,66,poldrack-categorize,421,729589,0.0-419.0,537e5cc6-76ec-4b29-863f-59786ad91f0f,,1500,250,stim,,"<div class = centerbox><div class = stroop-stim style = ""color:blue"">BLUE</div></div>","66,71,82",1500,practice,,,congruent,TRUE,66,,,500,blue,blue,-1,-1,poldrack-single-stim,422,730350,0.0-420.0,537e5cc6-76ec-4b29-863f-59786ad91f0f,,500,500,fixation,,<div class = centerbox><div class = fixation>+</div></div>,none,500,practice,,,,,,,,,,,765,71,poldrack-categorize,423,732863,0.0-421.0,537e5cc6-76ec-4b29-863f-59786ad91f0f,,1500,250,stim,,"<div class = centerbox><div class = stroop-stim style = ""color:green"">GREEN</div></div>","66,71,82",1500,practice,,,congruent,TRUE,71,,,500,green,green,-1,-1,poldrack-single-stim,424,733624,0.0-422.0,537e5cc6-76ec-4b29-863f-59786ad91f0f,,500,500,fixation,,<div class = centerbox><div class = fixation>+</div></div>,none,500,practice,,,,,,,,,,,-1,-1,poldrack-categorize,425,736139,0.0-423.0,537e5cc6-76ec-4b29-863f-59786ad91f0f,,1500,250,stim,,"<div class = centerbox><div class = stroop-stim style = ""color:red"">BLUE</div></div>","66,71,82",1500,practice,,,incongruent,FALSE,82,,,500,red,blue,-1,-1,poldrack-single-stim,426,736897,0.0-424.0,537e5cc6-76ec-4b29-863f-59786ad91f0f,,500,500,fixation,,<div class = centerbox><div class = fixation>+</div></div>,none,500,practice,,,,,,,,,,,1073,71,poldrack-categorize,427,739406,0.0-425.0,537e5cc6-76ec-4b29-863f-59786ad91f0f,,1500,250,stim,,"<div class = centerbox><div class = stroop-stim style = ""color:blue"">RED</div></div>","66,71,82",1500,practice,,,incongruent,FALSE,66,,,500,blue,red,-1,-1,poldrack-single-stim,428,740166,0.0-426.0,537e5cc6-76ec-4b29-863f-59786ad91f0f,,500,500,fixation,,<div class = centerbox><div class = fixation>+</div></div>,none,500,practice,,,,,,,,,,,-1,-1,poldrack-categorize,429,742676,0.0-427.0,537e5cc6-76ec-4b29-863f-59786ad91f0f,,1500,250,stim,,"<div class = centerbox><div class = stroop-stim style = ""color:green"">GREEN</div></div>","66,71,82",1500,practice,,,congruent,FALSE,71,,,500,green,green,-1,-1,poldrack-single-stim,430,743433,0.0-428.0,537e5cc6-76ec-4b29-863f-59786ad91f0f,,500,500,fixation,,<div class = centerbox><div class = fixation>+</div></div>,none,500,practice,,,,,,,,,,,1105,66,poldrack-categorize,431,745945,0.0-429.0,537e5cc6-76ec-4b29-863f-59786ad91f0f,,1500,250,stim,,"<div class = centerbox><div class = stroop-stim style = ""color:blue"">GREEN</div></div>","66,71,82",1500,practice,,,incongruent,TRUE,66,,,500,blue,green,-1,-1,poldrack-single-stim,432,746701,0.0-430.0,537e5cc6-76ec-4b29-863f-59786ad91f0f,,500,500,fixation,,<div class = centerbox><div class = fixation>+</div></div>,none,500,practice,,,,,,,,,,,935,66,poldrack-categorize,433,749209,0.0-431.0,537e5cc6-76ec-4b29-863f-59786ad91f0f,,1500,250,stim,,"<div class = centerbox><div class = stroop-stim style = ""color:blue"">GREEN</div></div>","66,71,82",1500,practice,,,incongruent,TRUE,66,,,500,blue,green,-1,-1,poldrack-single-stim,434,749969,0.0-432.0,537e5cc6-76ec-4b29-863f-59786ad91f0f,,500,500,fixation,,<div class = centerbox><div class = fixation>+</div></div>,none,500,practice,,,,,,,,,,,568,66,poldrack-categorize,435,752482,0.0-433.0,537e5cc6-76ec-4b29-863f-59786ad91f0f,,1500,250,stim,,"<div class = centerbox><div class = stroop-stim style = ""color:blue"">BLUE</div></div>","66,71,82",1500,practice,,,congruent,TRUE,66,,,500,blue,blue,-1,-1,poldrack-single-stim,436,753243,0.0-434.0,537e5cc6-76ec-4b29-863f-59786ad91f0f,,500,500,fixation,,<div class = centerbox><div class = fixation>+</div></div>,none,500,practice,,,,,,,,,,,646,82,poldrack-categorize,437,755756,0.0-435.0,537e5cc6-76ec-4b29-863f-59786ad91f0f,,1500,250,stim,,"<div class = centerbox><div class = stroop-stim style = ""color:red"">BLUE</div></div>","66,71,82",1500,practice,,,incongruent,TRUE,82,,,500,red,blue,-1,-1,poldrack-single-stim,438,756517,0.0-436.0,537e5cc6-76ec-4b29-863f-59786ad91f0f,,500,500,fixation,,<div class = centerbox><div class = fixation>+</div></div>,none,500,practice,,,,,,,,,,,552,82,poldrack-categorize,439,759024,0.0-437.0,537e5cc6-76ec-4b29-863f-59786ad91f0f,,1500,250,stim,,"<div class = centerbox><div class = stroop-stim style = ""color:red"">RED</div></div>","66,71,82",1500,practice,,,congruent,TRUE,82,,,500,red,red,1969,13,poldrack-text,440,761250,0.0-439.0,537e5cc6-76ec-4b29-863f-59786ad91f0f,<div class = centerbox><p class = center-block-text>We will now start the test. Respond exactly like you did during practice.</p><p class = center-block-text>Press <strong>enter</strong> to begin the test.</p></div>,1969,1000,test_intro,,,,,,,,,,,,,,,,-1,-1,poldrack-single-stim,441,762757,0.0-440.0,537e5cc6-76ec-4b29-863f-59786ad91f0f,,500,500,fixation,,<div class = centerbox><div class = fixation>+</div></div>,none,500,test,,,,,,,,,,,767,82,poldrack-categorize,442,765264,0.0-441.0,537e5cc6-76ec-4b29-863f-59786ad91f0f,,1500,250,stim,,"<div class = centerbox><div class = stroop-stim style = ""color:red"">GREEN</div></div>","66,71,82",1500,test,,,incongruent,TRUE,82,,,500,red,green,-1,-1,poldrack-single-stim,443,766024,0.0-442.0,537e5cc6-76ec-4b29-863f-59786ad91f0f,,500,500,fixation,,<div class = centerbox><div class = fixation>+</div></div>,none,500,test,,,,,,,,,,,575,82,poldrack-categorize,444,768540,0.0-443.0,537e5cc6-76ec-4b29-863f-59786ad91f0f,,1500,250,stim,,"<div class = centerbox><div class = stroop-stim style = ""color:red"">RED</div></div>","66,71,82",1500,test,,,congruent,TRUE,82,,,500,red,red,-1,-1,poldrack-single-stim,445,769298,0.0-444.0,537e5cc6-76ec-4b29-863f-59786ad91f0f,,500,500,fixation,,<div class = centerbox><div class = fixation>+</div></div>,none,500,test,,,,,,,,,,,1121,66,poldrack-categorize,446,771806,0.0-445.0,537e5cc6-76ec-4b29-863f-59786ad91f0f,,1500,250,stim,,"<div class = centerbox><div class = stroop-stim style = ""color:blue"">GREEN</div></div>","66,71,82",1500,test,,,incongruent,TRUE,66,,,500,blue,green,-1,-1,poldrack-single-stim,447,772567,0.0-446.0,537e5cc6-76ec-4b29-863f-59786ad91f0f,,500,500,fixation,,<div class = centerbox><div class = fixation>+</div></div>,none,500,test,,,,,,,,,,,610,66,poldrack-categorize,448,775080,0.0-447.0,537e5cc6-76ec-4b29-863f-59786ad91f0f,,1500,250,stim,,"<div class = centerbox><div class = stroop-stim style = ""color:blue"">BLUE</div></div>","66,71,82",1500,test,,,congruent,TRUE,66,,,500,blue,blue,-1,-1,poldrack-single-stim,449,775841,0.0-448.0,537e5cc6-76ec-4b29-863f-59786ad91f0f,,500,500,fixation,,<div class = centerbox><div class = fixation>+</div></div>,none,500,test,,,,,,,,,,,1055,71,poldrack-categorize,450,778354,0.0-449.0,537e5cc6-76ec-4b29-863f-59786ad91f0f,,1500,250,stim,,"<div class = centerbox><div class = stroop-stim style = ""color:green"">GREEN</div></div>","66,71,82",1500,test,,,congruent,TRUE,71,,,500,green,green,-1,-1,poldrack-single-stim,451,779114,0.0-450.0,537e5cc6-76ec-4b29-863f-59786ad91f0f,,500,500,fixation,,<div class = centerbox><div class = fixation>+</div></div>,none,500,test,,,,,,,,,,,677,71,poldrack-categorize,452,781628,0.0-451.0,537e5cc6-76ec-4b29-863f-59786ad91f0f,,1500,250,stim,,"<div class = centerbox><div class = stroop-stim style = ""color:red"">GREEN</div></div>","66,71,82",1500,test,,,incongruent,FALSE,82,,,500,red,green,-1,-1,poldrack-single-stim,453,782388,0.0-452.0,537e5cc6-76ec-4b29-863f-59786ad91f0f,,500,500,fixation,,<div class = centerbox><div class = fixation>+</div></div>,none,500,test,,,,,,,,,,,819,82,poldrack-categorize,454,784899,0.0-453.0,537e5cc6-76ec-4b29-863f-59786ad91f0f,,1500,250,stim,,"<div class = centerbox><div class = stroop-stim style = ""color:red"">RED</div></div>","66,71,82",1500,test,,,congruent,TRUE,82,,,500,red,red,-1,-1,poldrack-single-stim,455,785656,0.0-454.0,537e5cc6-76ec-4b29-863f-59786ad91f0f,,500,500,fixation,,<div class = centerbox><div class = fixation>+</div></div>,none,500,test,,,,,,,,,,,782,82,poldrack-categorize,456,788170,0.0-455.0,537e5cc6-76ec-4b29-863f-59786ad91f0f,,1500,250,stim,,"<div class = centerbox><div class = stroop-stim style = ""color:red"">BLUE</div></div>","66,71,82",1500,test,,,incongruent,TRUE,82,,,500,red,blue,-1,-1,poldrack-single-stim,457,788930,0.0-456.0,537e5cc6-76ec-4b29-863f-59786ad91f0f,,500,500,fixation,,<div class = centerbox><div class = fixation>+</div></div>,none,500,test,,,,,,,,,,,688,82,poldrack-categorize,458,791437,0.0-457.0,537e5cc6-76ec-4b29-863f-59786ad91f0f,,1500,250,stim,,"<div class = centerbox><div class = stroop-stim style = ""color:red"">RED</div></div>","66,71,82",1500,test,,,congruent,TRUE,82,,,500,red,red,-1,-1,poldrack-single-stim,459,792198,0.0-458.0,537e5cc6-76ec-4b29-863f-59786ad91f0f,,500,500,fixation,,<div class = centerbox><div class = fixation>+</div></div>,none,500,test,,,,,,,,,,,697,71,poldrack-categorize,460,794711,0.0-459.0,537e5cc6-76ec-4b29-863f-59786ad91f0f,,1500,250,stim,,"<div class = centerbox><div class = stroop-stim style = ""color:green"">GREEN</div></div>","66,71,82",1500,test,,,congruent,TRUE,71,,,500,green,green,-1,-1,poldrack-single-stim,461,795472,0.0-460.0,537e5cc6-76ec-4b29-863f-59786ad91f0f,,500,500,fixation,,<div class = centerbox><div class = fixation>+</div></div>,none,500,test,,,,,,,,,,,1398,71,poldrack-categorize,462,797984,0.0-461.0,537e5cc6-76ec-4b29-863f-59786ad91f0f,,1500,250,stim,,"<div class = centerbox><div class = stroop-stim style = ""color:green"">RED</div></div>","66,71,82",1500,test,,,incongruent,TRUE,71,,,500,green,red,-1,-1,poldrack-single-stim,463,798740,0.0-462.0,537e5cc6-76ec-4b29-863f-59786ad91f0f,,500,500,fixation,,<div class = centerbox><div class = fixation>+</div></div>,none,500,test,,,,,,,,,,,1187,82,poldrack-categorize,464,801253,0.0-463.0,537e5cc6-76ec-4b29-863f-59786ad91f0f,,1500,250,stim,,"<div class = centerbox><div class = stroop-stim style = ""color:red"">BLUE</div></div>","66,71,82",1500,test,,,incongruent,TRUE,82,,,500,red,blue,-1,-1,poldrack-single-stim,465,802014,0.0-464.0,537e5cc6-76ec-4b29-863f-59786ad91f0f,,500,500,fixation,,<div class = centerbox><div class = fixation>+</div></div>,none,500,test,,,,,,,,,,,600,66,poldrack-categorize,466,804527,0.0-465.0,537e5cc6-76ec-4b29-863f-59786ad91f0f,,1500,250,stim,,"<div class = centerbox><div class = stroop-stim style = ""color:blue"">RED</div></div>","66,71,82",1500,test,,,incongruent,TRUE,66,,,500,blue,red,-1,-1,poldrack-single-stim,467,805287,0.0-466.0,537e5cc6-76ec-4b29-863f-59786ad91f0f,,500,500,fixation,,<div class = centerbox><div class = fixation>+</div></div>,none,500,test,,,,,,,,,,,1135,82,poldrack-categorize,468,807801,0.0-467.0,537e5cc6-76ec-4b29-863f-59786ad91f0f,,1500,250,stim,,"<div class = centerbox><div class = stroop-stim style = ""color:red"">RED</div></div>","66,71,82",1500,test,,,congruent,TRUE,82,,,500,red,red,-1,-1,poldrack-single-stim,469,808561,0.0-468.0,537e5cc6-76ec-4b29-863f-59786ad91f0f,,500,500,fixation,,<div class = centerbox><div class = fixation>+</div></div>,none,500,test,,,,,,,,,,,684,66,poldrack-categorize,470,811074,0.0-469.0,537e5cc6-76ec-4b29-863f-59786ad91f0f,,1500,250,stim,,"<div class = centerbox><div class = stroop-stim style = ""color:blue"">BLUE</div></div>","66,71,82",1500,test,,,congruent,TRUE,66,,,500,blue,blue,-1,-1,poldrack-single-stim,471,811835,0.0-470.0,537e5cc6-76ec-4b29-863f-59786ad91f0f,,500,500,fixation,,<div class = centerbox><div class = fixation>+</div></div>,none,500,test,,,,,,,,,,,970,82,poldrack-categorize,472,814348,0.0-471.0,537e5cc6-76ec-4b29-863f-59786ad91f0f,,1500,250,stim,,"<div class = centerbox><div class = stroop-stim style = ""color:red"">BLUE</div></div>","66,71,82",1500,test,,,incongruent,TRUE,82,,,500,red,blue,-1,-1,poldrack-single-stim,473,815109,0.0-472.0,537e5cc6-76ec-4b29-863f-59786ad91f0f,,500,500,fixation,,<div class = centerbox><div class = fixation>+</div></div>,none,500,test,,,,,,,,,,,753,71,poldrack-categorize,474,817616,0.0-473.0,537e5cc6-76ec-4b29-863f-59786ad91f0f,,1500,250,stim,,"<div class = centerbox><div class = stroop-stim style = ""color:green"">GREEN</div></div>","66,71,82",1500,test,,,congruent,TRUE,71,,,500,green,green,-1,-1,poldrack-single-stim,475,818377,0.0-474.0,537e5cc6-76ec-4b29-863f-59786ad91f0f,,500,500,fixation,,<div class = centerbox><div class = fixation>+</div></div>,none,500,test,,,,,,,,,,,1037,82,poldrack-categorize,476,820890,0.0-475.0,537e5cc6-76ec-4b29-863f-59786ad91f0f,,1500,250,stim,,"<div class = centerbox><div class = stroop-stim style = ""color:red"">GREEN</div></div>","66,71,82",1500,test,,,incongruent,TRUE,82,,,500,red,green,-1,-1,poldrack-single-stim,477,821645,0.0-476.0,537e5cc6-76ec-4b29-863f-59786ad91f0f,,500,500,fixation,,<div class = centerbox><div class = fixation>+</div></div>,none,500,test,,,,,,,,,,,871,82,poldrack-categorize,478,824153,0.0-477.0,537e5cc6-76ec-4b29-863f-59786ad91f0f,,1500,250,stim,,"<div class = centerbox><div class = stroop-stim style = ""color:red"">RED</div></div>","66,71,82",1500,test,,,congruent,TRUE,82,,,500,red,red,-1,-1,poldrack-single-stim,479,824913,0.0-478.0,537e5cc6-76ec-4b29-863f-59786ad91f0f,,500,500,fixation,,<div class = centerbox><div class = fixation>+</div></div>,none,500,test,,,,,,,,,,,788,66,poldrack-categorize,480,827426,0.0-479.0,537e5cc6-76ec-4b29-863f-59786ad91f0f,,1500,250,stim,,"<div class = centerbox><div class = stroop-stim style = ""color:blue"">BLUE</div></div>","66,71,82",1500,test,,,congruent,TRUE,66,,,500,blue,blue,-1,-1,poldrack-single-stim,481,828187,0.0-480.0,537e5cc6-76ec-4b29-863f-59786ad91f0f,,500,500,fixation,,<div class = centerbox><div class = fixation>+</div></div>,none,500,test,,,,,,,,,,,562,71,poldrack-categorize,482,830700,0.0-481.0,537e5cc6-76ec-4b29-863f-59786ad91f0f,,1500,250,stim,,"<div class = centerbox><div class = stroop-stim style = ""color:green"">GREEN</div></div>","66,71,82",1500,test,,,congruent,TRUE,71,,,500,green,green,-1,-1,poldrack-single-stim,483,831460,0.0-482.0,537e5cc6-76ec-4b29-863f-59786ad91f0f,,500,500,fixation,,<div class = centerbox><div class = fixation>+</div></div>,none,500,test,,,,,,,,,,,816,66,poldrack-categorize,484,833974,0.0-483.0,537e5cc6-76ec-4b29-863f-59786ad91f0f,,1500,250,stim,,"<div class = centerbox><div class = stroop-stim style = ""color:blue"">BLUE</div></div>","66,71,82",1500,test,,,congruent,TRUE,66,,,500,blue,blue,-1,-1,poldrack-single-stim,485,834734,0.0-484.0,537e5cc6-76ec-4b29-863f-59786ad91f0f,,500,500,fixation,,<div class = centerbox><div class = fixation>+</div></div>,none,500,test,,,,,,,,,,,669,66,poldrack-categorize,486,837242,0.0-485.0,537e5cc6-76ec-4b29-863f-59786ad91f0f,,1500,250,stim,,"<div class = centerbox><div class = stroop-stim style = ""color:blue"">BLUE</div></div>","66,71,82",1500,test,,,congruent,TRUE,66,,,500,blue,blue,-1,-1,poldrack-single-stim,487,838002,0.0-486.0,537e5cc6-76ec-4b29-863f-59786ad91f0f,,500,500,fixation,,<div class = centerbox><div class = fixation>+</div></div>,none,500,test,,,,,,,,,,,801,71,poldrack-categorize,488,840515,0.0-487.0,537e5cc6-76ec-4b29-863f-59786ad91f0f,,1500,250,stim,,"<div class = centerbox><div class = stroop-stim style = ""color:green"">BLUE</div></div>","66,71,82",1500,test,,,incongruent,TRUE,71,,,500,green,blue,-1,-1,poldrack-single-stim,489,841272,0.0-488.0,537e5cc6-76ec-4b29-863f-59786ad91f0f,,500,500,fixation,,<div class = centerbox><div class = fixation>+</div></div>,none,500,test,,,,,,,,,,,725,66,poldrack-categorize,490,843783,0.0-489.0,537e5cc6-76ec-4b29-863f-59786ad91f0f,,1500,250,stim,,"<div class = centerbox><div class = stroop-stim style = ""color:blue"">BLUE</div></div>","66,71,82",1500,test,,,congruent,TRUE,66,,,500,blue,blue,-1,-1,poldrack-single-stim,491,844544,0.0-490.0,537e5cc6-76ec-4b29-863f-59786ad91f0f,,500,500,fixation,,<div class = centerbox><div class = fixation>+</div></div>,none,500,test,,,,,,,,,,,787,71,poldrack-categorize,492,847057,0.0-491.0,537e5cc6-76ec-4b29-863f-59786ad91f0f,,1500,250,stim,,"<div class = centerbox><div class = stroop-stim style = ""color:green"">BLUE</div></div>","66,71,82",1500,test,,,incongruent,TRUE,71,,,500,green,blue,-1,-1,poldrack-single-stim,493,847818,0.0-492.0,537e5cc6-76ec-4b29-863f-59786ad91f0f,,500,500,fixation,,<div class = centerbox><div class = fixation>+</div></div>,none,500,test,,,,,,,,,,,-1,-1,poldrack-categorize,494,850331,0.0-493.0,537e5cc6-76ec-4b29-863f-59786ad91f0f,,1500,250,stim,,"<div class = centerbox><div class = stroop-stim style = ""color:green"">GREEN</div></div>","66,71,82",1500,test,,,congruent,FALSE,71,,,500,green,green,-1,-1,poldrack-single-stim,495,851088,0.0-494.0,537e5cc6-76ec-4b29-863f-59786ad91f0f,,500,500,fixation,,<div class = centerbox><div class = fixation>+</div></div>,none,500,test,,,,,,,,,,,380,71,poldrack-categorize,496,853599,0.0-495.0,537e5cc6-76ec-4b29-863f-59786ad91f0f,,1500,250,stim,,"<div class = centerbox><div class = stroop-stim style = ""color:green"">BLUE</div></div>","66,71,82",1500,test,,,incongruent,TRUE,71,,,500,green,blue,-1,-1,poldrack-single-stim,497,854360,0.0-496.0,537e5cc6-76ec-4b29-863f-59786ad91f0f,,500,500,fixation,,<div class = centerbox><div class = fixation>+</div></div>,none,500,test,,,,,,,,,,,555,82,poldrack-categorize,498,856873,0.0-497.0,537e5cc6-76ec-4b29-863f-59786ad91f0f,,1500,250,stim,,"<div class = centerbox><div class = stroop-stim style = ""color:red"">RED</div></div>","66,71,82",1500,test,,,congruent,TRUE,82,,,500,red,red,-1,-1,poldrack-single-stim,499,857633,0.0-498.0,537e5cc6-76ec-4b29-863f-59786ad91f0f,,500,500,fixation,,<div class = centerbox><div class = fixation>+</div></div>,none,500,test,,,,,,,,,,,834,82,poldrack-categorize,500,860147,0.0-499.0,537e5cc6-76ec-4b29-863f-59786ad91f0f,,1500,250,stim,,"<div class = centerbox><div class = stroop-stim style = ""color:red"">BLUE</div></div>","66,71,82",1500,test,,,incongruent,TRUE,82,,,500,red,blue,-1,-1,poldrack-single-stim,501,860907,0.0-500.0,537e5cc6-76ec-4b29-863f-59786ad91f0f,,500,500,fixation,,<div class = centerbox><div class = fixation>+</div></div>,none,500,test,,,,,,,,,,,1255,66,poldrack-categorize,502,863420,0.0-501.0,537e5cc6-76ec-4b29-863f-59786ad91f0f,,1500,250,stim,,"<div class = centerbox><div class = stroop-stim style = ""color:blue"">BLUE</div></div>","66,71,82",1500,test,,,congruent,TRUE,66,,,500,blue,blue,-1,-1,poldrack-single-stim,503,864181,0.0-502.0,537e5cc6-76ec-4b29-863f-59786ad91f0f,,500,500,fixation,,<div class = centerbox><div class = fixation>+</div></div>,none,500,test,,,,,,,,,,,413,82,poldrack-categorize,504,866692,0.0-503.0,537e5cc6-76ec-4b29-863f-59786ad91f0f,,1500,250,stim,,"<div class = centerbox><div class = stroop-stim style = ""color:red"">RED</div></div>","66,71,82",1500,test,,,congruent,TRUE,82,,,500,red,red,-1,-1,poldrack-single-stim,505,867449,0.0-504.0,537e5cc6-76ec-4b29-863f-59786ad91f0f,,500,500,fixation,,<div class = centerbox><div class = fixation>+</div></div>,none,500,test,,,,,,,,,,,608,82,poldrack-categorize,506,869962,0.0-505.0,537e5cc6-76ec-4b29-863f-59786ad91f0f,,1500,250,stim,,"<div class = centerbox><div class = stroop-stim style = ""color:red"">BLUE</div></div>","66,71,82",1500,test,,,incongruent,TRUE,82,,,500,red,blue,-1,-1,poldrack-single-stim,507,870723,0.0-506.0,537e5cc6-76ec-4b29-863f-59786ad91f0f,,500,500,fixation,,<div class = centerbox><div class = fixation>+</div></div>,none,500,test,,,,,,,,,,,351,82,poldrack-categorize,508,873236,0.0-507.0,537e5cc6-76ec-4b29-863f-59786ad91f0f,,1500,250,stim,,"<div class = centerbox><div class = stroop-stim style = ""color:red"">RED</div></div>","66,71,82",1500,test,,,congruent,TRUE,82,,,500,red,red,-1,-1,poldrack-single-stim,509,873997,0.0-508.0,537e5cc6-76ec-4b29-863f-59786ad91f0f,,500,500,fixation,,<div class = centerbox><div class = fixation>+</div></div>,none,500,test,,,,,,,,,,,413,82,poldrack-categorize,510,876510,0.0-509.0,537e5cc6-76ec-4b29-863f-59786ad91f0f,,1500,250,stim,,"<div class = centerbox><div class = stroop-stim style = ""color:red"">BLUE</div></div>","66,71,82",1500,test,,,incongruent,TRUE,82,,,500,red,blue,-1,-1,poldrack-single-stim,511,877270,0.0-510.0,537e5cc6-76ec-4b29-863f-59786ad91f0f,,500,500,fixation,,<div class = centerbox><div class = fixation>+</div></div>,none,500,test,,,,,,,,,,,1354,66,poldrack-categorize,512,879784,0.0-511.0,537e5cc6-76ec-4b29-863f-59786ad91f0f,,1500,250,stim,,"<div class = centerbox><div class = stroop-stim style = ""color:blue"">RED</div></div>","66,71,82",1500,test,,,incongruent,TRUE,66,,,500,blue,red,-1,-1,poldrack-single-stim,513,880538,0.0-512.0,537e5cc6-76ec-4b29-863f-59786ad91f0f,,500,500,fixation,,<div class = centerbox><div class = fixation>+</div></div>,none,500,test,,,,,,,,,,,703,66,poldrack-categorize,514,883052,0.0-513.0,537e5cc6-76ec-4b29-863f-59786ad91f0f,,1500,250,stim,,"<div class = centerbox><div class = stroop-stim style = ""color:blue"">BLUE</div></div>","66,71,82",1500,test,,,congruent,TRUE,66,,,500,blue,blue,-1,-1,poldrack-single-stim,515,883812,0.0-514.0,537e5cc6-76ec-4b29-863f-59786ad91f0f,,500,500,fixation,,<div class = centerbox><div class = fixation>+</div></div>,none,500,test,,,,,,,,,,,484,66,poldrack-categorize,516,886325,0.0-515.0,537e5cc6-76ec-4b29-863f-59786ad91f0f,,1500,250,stim,,"<div class = centerbox><div class = stroop-stim style = ""color:blue"">BLUE</div></div>","66,71,82",1500,test,,,congruent,TRUE,66,,,500,blue,blue,-1,-1,poldrack-single-stim,517,887086,0.0-516.0,537e5cc6-76ec-4b29-863f-59786ad91f0f,,500,500,fixation,,<div class = centerbox><div class = fixation>+</div></div>,none,500,test,,,,,,,,,,,626,82,poldrack-categorize,518,889599,0.0-517.0,537e5cc6-76ec-4b29-863f-59786ad91f0f,,1500,250,stim,,"<div class = centerbox><div class = stroop-stim style = ""color:red"">RED</div></div>","66,71,82",1500,test,,,congruent,TRUE,82,,,500,red,red,-1,-1,poldrack-single-stim,519,890354,0.0-518.0,537e5cc6-76ec-4b29-863f-59786ad91f0f,,500,500,fixation,,<div class = centerbox><div class = fixation>+</div></div>,none,500,test,,,,,,,,,,,622,82,poldrack-categorize,520,892867,0.0-519.0,537e5cc6-76ec-4b29-863f-59786ad91f0f,,1500,250,stim,,"<div class = centerbox><div class = stroop-stim style = ""color:red"">RED</div></div>","66,71,82",1500,test,,,congruent,TRUE,82,,,500,red,red,-1,-1,poldrack-single-stim,521,893626,0.0-520.0,537e5cc6-76ec-4b29-863f-59786ad91f0f,,500,500,fixation,,<div class = centerbox><div class = fixation>+</div></div>,none,500,test,,,,,,,,,,,1042,66,poldrack-categorize,522,896135,0.0-521.0,537e5cc6-76ec-4b29-863f-59786ad91f0f,,1500,250,stim,,"<div class = centerbox><div class = stroop-stim style = ""color:blue"">GREEN</div></div>","66,71,82",1500,test,,,incongruent,TRUE,66,,,500,blue,green,-1,-1,poldrack-single-stim,523,896892,0.0-522.0,537e5cc6-76ec-4b29-863f-59786ad91f0f,,500,500,fixation,,<div class = centerbox><div class = fixation>+</div></div>,none,500,test,,,,,,,,,,,853,66,poldrack-categorize,524,899403,0.0-523.0,537e5cc6-76ec-4b29-863f-59786ad91f0f,,1500,250,stim,,"<div class = centerbox><div class = stroop-stim style = ""color:blue"">GREEN</div></div>","66,71,82",1500,test,,,incongruent,TRUE,66,,,500,blue,green,-1,-1,poldrack-single-stim,525,900164,0.0-524.0,537e5cc6-76ec-4b29-863f-59786ad91f0f,,500,500,fixation,,<div class = centerbox><div class = fixation>+</div></div>,none,500,test,,,,,,,,,,,579,82,poldrack-categorize,526,902677,0.0-525.0,537e5cc6-76ec-4b29-863f-59786ad91f0f,,1500,250,stim,,"<div class = centerbox><div class = stroop-stim style = ""color:red"">RED</div></div>","66,71,82",1500,test,,,congruent,TRUE,82,,,500,red,red,-1,-1,poldrack-single-stim,527,903438,0.0-526.0,537e5cc6-76ec-4b29-863f-59786ad91f0f,,500,500,fixation,,<div class = centerbox><div class = fixation>+</div></div>,none,500,test,,,,,,,,,,,794,66,poldrack-categorize,528,905951,0.0-527.0,537e5cc6-76ec-4b29-863f-59786ad91f0f,,1500,250,stim,,"<div class = centerbox><div class = stroop-stim style = ""color:blue"">BLUE</div></div>","66,71,82",1500,test,,,congruent,TRUE,66,,,500,blue,blue,-1,-1,poldrack-single-stim,529,906711,0.0-528.0,537e5cc6-76ec-4b29-863f-59786ad91f0f,,500,500,fixation,,<div class = centerbox><div class = fixation>+</div></div>,none,500,test,,,,,,,,,,,400,71,poldrack-categorize,530,909224,0.0-529.0,537e5cc6-76ec-4b29-863f-59786ad91f0f,,1500,250,stim,,"<div class = centerbox><div class = stroop-stim style = ""color:green"">RED</div></div>","66,71,82",1500,test,,,incongruent,TRUE,71,,,500,green,red,-1,-1,poldrack-single-stim,531,909985,0.0-530.0,537e5cc6-76ec-4b29-863f-59786ad91f0f,,500,500,fixation,,<div class = centerbox><div class = fixation>+</div></div>,none,500,test,,,,,,,,,,,653,82,poldrack-categorize,532,912495,0.0-531.0,537e5cc6-76ec-4b29-863f-59786ad91f0f,,1500,250,stim,,"<div class = centerbox><div class = stroop-stim style = ""color:red"">BLUE</div></div>","66,71,82",1500,test,,,incongruent,TRUE,82,,,500,red,blue,-1,-1,poldrack-single-stim,533,913253,0.0-532.0,537e5cc6-76ec-4b29-863f-59786ad91f0f,,500,500,fixation,,<div class = centerbox><div class = fixation>+</div></div>,none,500,test,,,,,,,,,,,857,66,poldrack-categorize,534,915766,0.0-533.0,537e5cc6-76ec-4b29-863f-59786ad91f0f,,1500,250,stim,,"<div class = centerbox><div class = stroop-stim style = ""color:blue"">BLUE</div></div>","66,71,82",1500,test,,,congruent,TRUE,66,,,500,blue,blue,-1,-1,poldrack-single-stim,535,916527,0.0-534.0,537e5cc6-76ec-4b29-863f-59786ad91f0f,,500,500,fixation,,<div class = centerbox><div class = fixation>+</div></div>,none,500,test,,,,,,,,,,,487,82,poldrack-categorize,536,919040,0.0-535.0,537e5cc6-76ec-4b29-863f-59786ad91f0f,,1500,250,stim,,"<div class = centerbox><div class = stroop-stim style = ""color:red"">RED</div></div>","66,71,82",1500,test,,,congruent,TRUE,82,,,500,red,red,-1,-1,poldrack-single-stim,537,919801,0.0-536.0,537e5cc6-76ec-4b29-863f-59786ad91f0f,,500,500,fixation,,<div class = centerbox><div class = fixation>+</div></div>,none,500,test,,,,,,,,,,,1230,66,poldrack-categorize,538,922314,0.0-537.0,537e5cc6-76ec-4b29-863f-59786ad91f0f,,1500,250,stim,,"<div class = centerbox><div class = stroop-stim style = ""color:blue"">RED</div></div>","66,71,82",1500,test,,,incongruent,TRUE,66,,,500,blue,red,-1,-1,poldrack-single-stim,539,923075,0.0-538.0,537e5cc6-76ec-4b29-863f-59786ad91f0f,,500,500,fixation,,<div class = centerbox><div class = fixation>+</div></div>,none,500,test,,,,,,,,,,,915,82,poldrack-categorize,540,925588,0.0-539.0,537e5cc6-76ec-4b29-863f-59786ad91f0f,,1500,250,stim,,"<div class = centerbox><div class = stroop-stim style = ""color:green"">BLUE</div></div>","66,71,82",1500,test,,,incongruent,FALSE,71,,,500,green,blue,-1,-1,poldrack-single-stim,541,926348,0.0-540.0,537e5cc6-76ec-4b29-863f-59786ad91f0f,,500,500,fixation,,<div class = centerbox><div class = fixation>+</div></div>,none,500,test,,,,,,,,,,,1449,66,poldrack-categorize,542,928862,0.0-541.0,537e5cc6-76ec-4b29-863f-59786ad91f0f,,1500,250,stim,,"<div class = centerbox><div class = stroop-stim style = ""color:blue"">GREEN</div></div>","66,71,82",1500,test,,,incongruent,TRUE,66,,,500,blue,green,-1,-1,poldrack-single-stim,543,929622,0.0-542.0,537e5cc6-76ec-4b29-863f-59786ad91f0f,,500,500,fixation,,<div class = centerbox><div class = fixation>+</div></div>,none,500,test,,,,,,,,,,,1311,82,poldrack-categorize,544,932135,0.0-543.0,537e5cc6-76ec-4b29-863f-59786ad91f0f,,1500,250,stim,,"<div class = centerbox><div class = stroop-stim style = ""color:red"">GREEN</div></div>","66,71,82",1500,test,,,incongruent,TRUE,82,,,500,red,green,-1,-1,poldrack-single-stim,545,932896,0.0-544.0,537e5cc6-76ec-4b29-863f-59786ad91f0f,,500,500,fixation,,<div class = centerbox><div class = fixation>+</div></div>,none,500,test,,,,,,,,,,,1165,71,poldrack-categorize,546,935410,0.0-545.0,537e5cc6-76ec-4b29-863f-59786ad91f0f,,1500,250,stim,,"<div class = centerbox><div class = stroop-stim style = ""color:green"">RED</div></div>","66,71,82",1500,test,,,incongruent,TRUE,71,,,500,green,red,-1,-1,poldrack-single-stim,547,936170,0.0-546.0,537e5cc6-76ec-4b29-863f-59786ad91f0f,,500,500,fixation,,<div class = centerbox><div class = fixation>+</div></div>,none,500,test,,,,,,,,,,,475,71,poldrack-categorize,548,938683,0.0-547.0,537e5cc6-76ec-4b29-863f-59786ad91f0f,,1500,250,stim,,"<div class = centerbox><div class = stroop-stim style = ""color:green"">BLUE</div></div>","66,71,82",1500,test,,,incongruent,TRUE,71,,,500,green,blue,-1,-1,poldrack-single-stim,549,939444,0.0-548.0,537e5cc6-76ec-4b29-863f-59786ad91f0f,,500,500,fixation,,<div class = centerbox><div class = fixation>+</div></div>,none,500,test,,,,,,,,,,,1091,66,poldrack-categorize,550,941957,0.0-549.0,537e5cc6-76ec-4b29-863f-59786ad91f0f,,1500,250,stim,,"<div class = centerbox><div class = stroop-stim style = ""color:blue"">RED</div></div>","66,71,82",1500,test,,,incongruent,TRUE,66,,,500,blue,red,-1,-1,poldrack-single-stim,551,942717,0.0-550.0,537e5cc6-76ec-4b29-863f-59786ad91f0f,,500,500,fixation,,<div class = centerbox><div class = fixation>+</div></div>,none,500,test,,,,,,,,,,,855,82,poldrack-categorize,552,945231,0.0-551.0,537e5cc6-76ec-4b29-863f-59786ad91f0f,,1500,250,stim,,"<div class = centerbox><div class = stroop-stim style = ""color:red"">GREEN</div></div>","66,71,82",1500,test,,,incongruent,TRUE,82,,,500,red,green,-1,-1,poldrack-single-stim,553,945986,0.0-552.0,537e5cc6-76ec-4b29-863f-59786ad91f0f,,500,500,fixation,,<div class = centerbox><div class = fixation>+</div></div>,none,500,test,,,,,,,,,,,772,71,poldrack-categorize,554,948499,0.0-553.0,537e5cc6-76ec-4b29-863f-59786ad91f0f,,1500,250,stim,,"<div class = centerbox><div class = stroop-stim style = ""color:green"">GREEN</div></div>","66,71,82",1500,test,,,congruent,TRUE,71,,,500,green,green,-1,-1,poldrack-single-stim,555,949259,0.0-554.0,537e5cc6-76ec-4b29-863f-59786ad91f0f,,500,500,fixation,,<div class = centerbox><div class = fixation>+</div></div>,none,500,test,,,,,,,,,,,1297,66,poldrack-categorize,556,951772,0.0-555.0,537e5cc6-76ec-4b29-863f-59786ad91f0f,,1500,250,stim,,"<div class = centerbox><div class = stroop-stim style = ""color:blue"">BLUE</div></div>","66,71,82",1500,test,,,congruent,TRUE,66,,,500,blue,blue,-1,-1,poldrack-single-stim,557,952533,0.0-556.0,537e5cc6-76ec-4b29-863f-59786ad91f0f,,500,500,fixation,,<div class = centerbox><div class = fixation>+</div></div>,none,500,test,,,,,,,,,,,911,82,poldrack-categorize,558,955046,0.0-557.0,537e5cc6-76ec-4b29-863f-59786ad91f0f,,1500,250,stim,,"<div class = centerbox><div class = stroop-stim style = ""color:red"">RED</div></div>","66,71,82",1500,test,,,congruent,TRUE,82,,,500,red,red,-1,-1,poldrack-single-stim,559,955807,0.0-558.0,537e5cc6-76ec-4b29-863f-59786ad91f0f,,500,500,fixation,,<div class = centerbox><div class = fixation>+</div></div>,none,500,test,,,,,,,,,,,757,71,poldrack-categorize,560,958320,0.0-559.0,537e5cc6-76ec-4b29-863f-59786ad91f0f,,1500,250,stim,,"<div class = centerbox><div class = stroop-stim style = ""color:green"">RED</div></div>","66,71,82",1500,test,,,incongruent,TRUE,71,,,500,green,red,-1,-1,poldrack-single-stim,561,959081,0.0-560.0,537e5cc6-76ec-4b29-863f-59786ad91f0f,,500,500,fixation,,<div class = centerbox><div class = fixation>+</div></div>,none,500,test,,,,,,,,,,,1011,66,poldrack-categorize,562,961594,0.0-561.0,537e5cc6-76ec-4b29-863f-59786ad91f0f,,1500,250,stim,,"<div class = centerbox><div class = stroop-stim style = ""color:blue"">RED</div></div>","66,71,82",1500,test,,,incongruent,TRUE,66,,,500,blue,red,-1,-1,poldrack-single-stim,563,962354,0.0-562.0,537e5cc6-76ec-4b29-863f-59786ad91f0f,,500,500,fixation,,<div class = centerbox><div class = fixation>+</div></div>,none,500,test,,,,,,,,,,,713,66,poldrack-categorize,564,964868,0.0-563.0,537e5cc6-76ec-4b29-863f-59786ad91f0f,,1500,250,stim,,"<div class = centerbox><div class = stroop-stim style = ""color:blue"">BLUE</div></div>","66,71,82",1500,test,,,congruent,TRUE,66,,,500,blue,blue,-1,-1,poldrack-single-stim,565,965627,0.0-564.0,537e5cc6-76ec-4b29-863f-59786ad91f0f,,500,500,fixation,,<div class = centerbox><div class = fixation>+</div></div>,none,500,test,,,,,,,,,,,679,71,poldrack-categorize,566,968142,0.0-565.0,537e5cc6-76ec-4b29-863f-59786ad91f0f,,1500,250,stim,,"<div class = centerbox><div class = stroop-stim style = ""color:green"">GREEN</div></div>","66,71,82",1500,test,,,congruent,TRUE,71,,,500,green,green,-1,-1,poldrack-single-stim,567,968899,0.0-566.0,537e5cc6-76ec-4b29-863f-59786ad91f0f,,500,500,fixation,,<div class = centerbox><div class = fixation>+</div></div>,none,500,test,,,,,,,,,,,700,66,poldrack-categorize,568,971410,0.0-567.0,537e5cc6-76ec-4b29-863f-59786ad91f0f,,1500,250,stim,,"<div class = centerbox><div class = stroop-stim style = ""color:blue"">BLUE</div></div>","66,71,82",1500,test,,,congruent,TRUE,66,,,500,blue,blue,-1,-1,poldrack-single-stim,569,972166,0.0-568.0,537e5cc6-76ec-4b29-863f-59786ad91f0f,,500,500,fixation,,<div class = centerbox><div class = fixation>+</div></div>,none,500,test,,,,,,,,,,,445,82,poldrack-categorize,570,974677,0.0-569.0,537e5cc6-76ec-4b29-863f-59786ad91f0f,,1500,250,stim,,"<div class = centerbox><div class = stroop-stim style = ""color:red"">RED</div></div>","66,71,82",1500,test,,,congruent,TRUE,82,,,500,red,red,-1,-1,poldrack-single-stim,571,975438,0.0-570.0,537e5cc6-76ec-4b29-863f-59786ad91f0f,,500,500,fixation,,<div class = centerbox><div class = fixation>+</div></div>,none,500,test,,,,,,,,,,,652,66,poldrack-categorize,572,977951,0.0-571.0,537e5cc6-76ec-4b29-863f-59786ad91f0f,,1500,250,stim,,"<div class = centerbox><div class = stroop-stim style = ""color:blue"">BLUE</div></div>","66,71,82",1500,test,,,congruent,TRUE,66,,,500,blue,blue,-1,-1,poldrack-single-stim,573,978710,0.0-572.0,537e5cc6-76ec-4b29-863f-59786ad91f0f,,500,500,fixation,,<div class = centerbox><div class = fixation>+</div></div>,none,500,test,,,,,,,,,,,1085,82,poldrack-categorize,574,981218,0.0-573.0,537e5cc6-76ec-4b29-863f-59786ad91f0f,,1500,250,stim,,"<div class = centerbox><div class = stroop-stim style = ""color:red"">RED</div></div>","66,71,82",1500,test,,,congruent,TRUE,82,,,500,red,red,-1,-1,poldrack-single-stim,575,981974,0.0-574.0,537e5cc6-76ec-4b29-863f-59786ad91f0f,,500,500,fixation,,<div class = centerbox><div class = fixation>+</div></div>,none,500,test,,,,,,,,,,,813,71,poldrack-categorize,576,984482,0.0-575.0,537e5cc6-76ec-4b29-863f-59786ad91f0f,,1500,250,stim,,"<div class = centerbox><div class = stroop-stim style = ""color:blue"">GREEN</div></div>","66,71,82",1500,test,,,incongruent,FALSE,66,,,500,blue,green,-1,-1,poldrack-single-stim,577,985236,0.0-576.0,537e5cc6-76ec-4b29-863f-59786ad91f0f,,500,500,fixation,,<div class = centerbox><div class = fixation>+</div></div>,none,500,test,,,,,,,,,,,1382,66,poldrack-categorize,578,987744,0.0-577.0,537e5cc6-76ec-4b29-863f-59786ad91f0f,,1500,250,stim,,"<div class = centerbox><div class = stroop-stim style = ""color:green"">BLUE</div></div>","66,71,82",1500,test,,,incongruent,FALSE,71,,,500,green,blue,-1,-1,poldrack-single-stim,579,988504,0.0-578.0,537e5cc6-76ec-4b29-863f-59786ad91f0f,,500,500,fixation,,<div class = centerbox><div class = fixation>+</div></div>,none,500,test,,,,,,,,,,,1353,71,poldrack-categorize,580,991017,0.0-579.0,537e5cc6-76ec-4b29-863f-59786ad91f0f,,1500,250,stim,,"<div class = centerbox><div class = stroop-stim style = ""color:green"">RED</div></div>","66,71,82",1500,test,,,incongruent,TRUE,71,,,500,green,red,-1,-1,poldrack-single-stim,581,991778,0.0-580.0,537e5cc6-76ec-4b29-863f-59786ad91f0f,,500,500,fixation,,<div class = centerbox><div class = fixation>+</div></div>,none,500,test,,,,,,,,,,,743,71,poldrack-categorize,582,994291,0.0-581.0,537e5cc6-76ec-4b29-863f-59786ad91f0f,,1500,250,stim,,"<div class = centerbox><div class = stroop-stim style = ""color:green"">GREEN</div></div>","66,71,82",1500,test,,,congruent,TRUE,71,,,500,green,green,-1,-1,poldrack-single-stim,583,995052,0.0-582.0,537e5cc6-76ec-4b29-863f-59786ad91f0f,,500,500,fixation,,<div class = centerbox><div class = fixation>+</div></div>,none,500,test,,,,,,,,,,,805,66,poldrack-categorize,584,997565,0.0-583.0,537e5cc6-76ec-4b29-863f-59786ad91f0f,,1500,250,stim,,"<div class = centerbox><div class = stroop-stim style = ""color:blue"">GREEN</div></div>","66,71,82",1500,test,,,incongruent,TRUE,66,,,500,blue,green,-1,-1,poldrack-single-stim,585,998326,0.0-584.0,537e5cc6-76ec-4b29-863f-59786ad91f0f,,500,500,fixation,,<div class = centerbox><div class = fixation>+</div></div>,none,500,test,,,,,,,,,,,-1,-1,poldrack-categorize,586,1000839,0.0-585.0,537e5cc6-76ec-4b29-863f-59786ad91f0f,,1500,250,stim,,"<div class = centerbox><div class = stroop-stim style = ""color:green"">GREEN</div></div>","66,71,82",1500,test,,,congruent,FALSE,71,,,500,green,green,-1,-1,poldrack-single-stim,587,1001600,0.0-586.0,537e5cc6-76ec-4b29-863f-59786ad91f0f,,500,500,fixation,,<div class = centerbox><div class = fixation>+</div></div>,none,500,test,,,,,,,,,,,802,82,poldrack-categorize,588,1004113,0.0-587.0,537e5cc6-76ec-4b29-863f-59786ad91f0f,,1500,250,stim,,"<div class = centerbox><div class = stroop-stim style = ""color:red"">BLUE</div></div>","66,71,82",1500,test,,,incongruent,TRUE,82,,,500,red,blue,-1,-1,poldrack-single-stim,589,1004873,0.0-588.0,537e5cc6-76ec-4b29-863f-59786ad91f0f,,500,500,fixation,,<div class = centerbox><div class = fixation>+</div></div>,none,500,test,,,,,,,,,,,903,71,poldrack-categorize,590,1007387,0.0-589.0,537e5cc6-76ec-4b29-863f-59786ad91f0f,,1500,250,stim,,"<div class = centerbox><div class = stroop-stim style = ""color:green"">RED</div></div>","66,71,82",1500,test,,,incongruent,TRUE,71,,,500,green,red,-1,-1,poldrack-single-stim,591,1008147,0.0-590.0,537e5cc6-76ec-4b29-863f-59786ad91f0f,,500,500,fixation,,<div class = centerbox><div class = fixation>+</div></div>,none,500,test,,,,,,,,,,,1045,66,poldrack-categorize,592,1010660,0.0-591.0,537e5cc6-76ec-4b29-863f-59786ad91f0f,,1500,250,stim,,"<div class = centerbox><div class = stroop-stim style = ""color:blue"">RED</div></div>","66,71,82",1500,test,,,incongruent,TRUE,66,,,500,blue,red,-1,-1,poldrack-single-stim,593,1011421,0.0-592.0,537e5cc6-76ec-4b29-863f-59786ad91f0f,,500,500,fixation,,<div class = centerbox><div class = fixation>+</div></div>,none,500,test,,,,,,,,,,,563,71,poldrack-categorize,594,1013928,0.0-593.0,537e5cc6-76ec-4b29-863f-59786ad91f0f,,1500,250,stim,,"<div class = centerbox><div class = stroop-stim style = ""color:green"">RED</div></div>","66,71,82",1500,test,,,incongruent,TRUE,71,,,500,green,red,-1,-1,poldrack-single-stim,595,1014689,0.0-594.0,537e5cc6-76ec-4b29-863f-59786ad91f0f,,500,500,fixation,,<div class = centerbox><div class = fixation>+</div></div>,none,500,test,,,,,,,,,,,823,82,poldrack-categorize,596,1017202,0.0-595.0,537e5cc6-76ec-4b29-863f-59786ad91f0f,,1500,250,stim,,"<div class = centerbox><div class = stroop-stim style = ""color:red"">GREEN</div></div>","66,71,82",1500,test,,,incongruent,TRUE,82,,,500,red,green,-1,-1,poldrack-single-stim,597,1017963,0.0-596.0,537e5cc6-76ec-4b29-863f-59786ad91f0f,,500,500,fixation,,<div class = centerbox><div class = fixation>+</div></div>,none,500,test,,,,,,,,,,,766,71,poldrack-categorize,598,1020476,0.0-597.0,537e5cc6-76ec-4b29-863f-59786ad91f0f,,1500,250,stim,,"<div class = centerbox><div class = stroop-stim style = ""color:green"">BLUE</div></div>","66,71,82",1500,test,,,incongruent,TRUE,71,,,500,green,blue,-1,-1,poldrack-single-stim,599,1021236,0.0-598.0,537e5cc6-76ec-4b29-863f-59786ad91f0f,,500,500,fixation,,<div class = centerbox><div class = fixation>+</div></div>,none,500,test,,,,,,,,,,,932,71,poldrack-categorize,600,1023750,0.0-599.0,537e5cc6-76ec-4b29-863f-59786ad91f0f,,1500,250,stim,,"<div class = centerbox><div class = stroop-stim style = ""color:green"">GREEN</div></div>","66,71,82",1500,test,,,congruent,TRUE,71,,,500,green,green,-1,-1,poldrack-single-stim,601,1024510,0.0-600.0,537e5cc6-76ec-4b29-863f-59786ad91f0f,,500,500,fixation,,<div class = centerbox><div class = fixation>+</div></div>,none,500,test,,,,,,,,,,,633,82,poldrack-categorize,602,1027024,0.0-601.0,537e5cc6-76ec-4b29-863f-59786ad91f0f,,1500,250,stim,,"<div class = centerbox><div class = stroop-stim style = ""color:red"">GREEN</div></div>","66,71,82",1500,test,,,incongruent,TRUE,82,,,500,red,green,-1,-1,poldrack-single-stim,603,1027784,0.0-602.0,537e5cc6-76ec-4b29-863f-59786ad91f0f,,500,500,fixation,,<div class = centerbox><div class = fixation>+</div></div>,none,500,test,,,,,,,,,,,943,82,poldrack-categorize,604,1030297,0.0-603.0,537e5cc6-76ec-4b29-863f-59786ad91f0f,,1500,250,stim,,"<div class = centerbox><div class = stroop-stim style = ""color:red"">GREEN</div></div>","66,71,82",1500,test,,,incongruent,TRUE,82,,,500,red,green,-1,-1,poldrack-single-stim,605,1031058,0.0-604.0,537e5cc6-76ec-4b29-863f-59786ad91f0f,,500,500,fixation,,<div class = centerbox><div class = fixation>+</div></div>,none,500,test,,,,,,,,,,,965,66,poldrack-categorize,606,1033571,0.0-605.0,537e5cc6-76ec-4b29-863f-59786ad91f0f,,1500,250,stim,,"<div class = centerbox><div class = stroop-stim style = ""color:blue"">GREEN</div></div>","66,71,82",1500,test,,,incongruent,TRUE,66,,,500,blue,green,-1,-1,poldrack-single-stim,607,1034332,0.0-606.0,537e5cc6-76ec-4b29-863f-59786ad91f0f,,500,500,fixation,,<div class = centerbox><div class = fixation>+</div></div>,none,500,test,,,,,,,,,,,811,66,poldrack-categorize,608,1036845,0.0-607.0,537e5cc6-76ec-4b29-863f-59786ad91f0f,,1500,250,stim,,"<div class = centerbox><div class = stroop-stim style = ""color:blue"">GREEN</div></div>","66,71,82",1500,test,,,incongruent,TRUE,66,,,500,blue,green,-1,-1,poldrack-single-stim,609,1037606,0.0-608.0,537e5cc6-76ec-4b29-863f-59786ad91f0f,,500,500,fixation,,<div class = centerbox><div class = fixation>+</div></div>,none,500,test,,,,,,,,,,,817,71,poldrack-categorize,610,1040113,0.0-609.0,537e5cc6-76ec-4b29-863f-59786ad91f0f,,1500,250,stim,,"<div class = centerbox><div class = stroop-stim style = ""color:green"">RED</div></div>","66,71,82",1500,test,,,incongruent,TRUE,71,,,500,green,red,-1,-1,poldrack-single-stim,611,1040868,0.0-610.0,537e5cc6-76ec-4b29-863f-59786ad91f0f,,500,500,fixation,,<div class = centerbox><div class = fixation>+</div></div>,none,500,test,,,,,,,,,,,595,71,poldrack-categorize,612,1043381,0.0-611.0,537e5cc6-76ec-4b29-863f-59786ad91f0f,,1500,250,stim,,"<div class = centerbox><div class = stroop-stim style = ""color:green"">GREEN</div></div>","66,71,82",1500,test,,,congruent,TRUE,71,,,500,green,green,-1,-1,poldrack-single-stim,613,1044142,0.0-612.0,537e5cc6-76ec-4b29-863f-59786ad91f0f,,500,500,fixation,,<div class = centerbox><div class = fixation>+</div></div>,none,500,test,,,,,,,,,,,473,71,poldrack-categorize,614,1046651,0.0-613.0,537e5cc6-76ec-4b29-863f-59786ad91f0f,,1500,250,stim,,"<div class = centerbox><div class = stroop-stim style = ""color:green"">GREEN</div></div>","66,71,82",1500,test,,,congruent,TRUE,71,,,500,green,green,-1,-1,poldrack-single-stim,615,1047410,0.0-614.0,537e5cc6-76ec-4b29-863f-59786ad91f0f,,500,500,fixation,,<div class = centerbox><div class = fixation>+</div></div>,none,500,test,,,,,,,,,,,605,82,poldrack-categorize,616,1049923,0.0-615.0,537e5cc6-76ec-4b29-863f-59786ad91f0f,,1500,250,stim,,"<div class = centerbox><div class = stroop-stim style = ""color:red"">RED</div></div>","66,71,82",1500,test,,,congruent,TRUE,82,,,500,red,red,-1,-1,poldrack-single-stim,617,1050683,0.0-616.0,537e5cc6-76ec-4b29-863f-59786ad91f0f,,500,500,fixation,,<div class = centerbox><div class = fixation>+</div></div>,none,500,test,,,,,,,,,,,1162,71,poldrack-categorize,618,1053197,0.0-617.0,537e5cc6-76ec-4b29-863f-59786ad91f0f,,1500,250,stim,,"<div class = centerbox><div class = stroop-stim style = ""color:green"">BLUE</div></div>","66,71,82",1500,test,,,incongruent,TRUE,71,,,500,green,blue,-1,-1,poldrack-single-stim,619,1053957,0.0-618.0,537e5cc6-76ec-4b29-863f-59786ad91f0f,,500,500,fixation,,<div class = centerbox><div class = fixation>+</div></div>,none,500,test,,,,,,,,,,,712,66,poldrack-categorize,620,1056470,0.0-619.0,537e5cc6-76ec-4b29-863f-59786ad91f0f,,1500,250,stim,,"<div class = centerbox><div class = stroop-stim style = ""color:blue"">BLUE</div></div>","66,71,82",1500,test,,,congruent,TRUE,66,,,500,blue,blue,-1,-1,poldrack-single-stim,621,1057231,0.0-620.0,537e5cc6-76ec-4b29-863f-59786ad91f0f,,500,500,fixation,,<div class = centerbox><div class = fixation>+</div></div>,none,500,test,,,,,,,,,,,593,71,poldrack-categorize,622,1059738,0.0-621.0,537e5cc6-76ec-4b29-863f-59786ad91f0f,,1500,250,stim,,"<div class = centerbox><div class = stroop-stim style = ""color:green"">GREEN</div></div>","66,71,82",1500,test,,,congruent,TRUE,71,,,500,green,green,-1,-1,poldrack-single-stim,623,1060499,0.0-622.0,537e5cc6-76ec-4b29-863f-59786ad91f0f,,500,500,fixation,,<div class = centerbox><div class = fixation>+</div></div>,none,500,test,,,,,,,,,,,1074,66,poldrack-categorize,624,1063012,0.0-623.0,537e5cc6-76ec-4b29-863f-59786ad91f0f,,1500,250,stim,,"<div class = centerbox><div class = stroop-stim style = ""color:blue"">RED</div></div>","66,71,82",1500,test,,,incongruent,TRUE,66,,,500,blue,red,-1,-1,poldrack-single-stim,625,1063772,0.0-624.0,537e5cc6-76ec-4b29-863f-59786ad91f0f,,500,500,fixation,,<div class = centerbox><div class = fixation>+</div></div>,none,500,test,,,,,,,,,,,792,66,poldrack-categorize,626,1066286,0.0-625.0,537e5cc6-76ec-4b29-863f-59786ad91f0f,,1500,250,stim,,"<div class = centerbox><div class = stroop-stim style = ""color:blue"">RED</div></div>","66,71,82",1500,test,,,incongruent,TRUE,66,,,500,blue,red,-1,-1,poldrack-single-stim,627,1067047,0.0-626.0,537e5cc6-76ec-4b29-863f-59786ad91f0f,,500,500,fixation,,<div class = centerbox><div class = fixation>+</div></div>,none,500,test,,,,,,,,,,,614,71,poldrack-categorize,628,1069560,0.0-627.0,537e5cc6-76ec-4b29-863f-59786ad91f0f,,1500,250,stim,,"<div class = centerbox><div class = stroop-stim style = ""color:green"">GREEN</div></div>","66,71,82",1500,test,,,congruent,TRUE,71,,,500,green,green,-1,-1,poldrack-single-stim,629,1070320,0.0-628.0,537e5cc6-76ec-4b29-863f-59786ad91f0f,,500,500,fixation,,<div class = centerbox><div class = fixation>+</div></div>,none,500,test,,,,,,,,,,,636,71,poldrack-categorize,630,1072834,0.0-629.0,537e5cc6-76ec-4b29-863f-59786ad91f0f,,1500,250,stim,,"<div class = centerbox><div class = stroop-stim style = ""color:green"">GREEN</div></div>","66,71,82",1500,test,,,congruent,TRUE,71,,,500,green,green,-1,-1,poldrack-single-stim,631,1073594,0.0-630.0,537e5cc6-76ec-4b29-863f-59786ad91f0f,,500,500,fixation,,<div class = centerbox><div class = fixation>+</div></div>,none,500,test,,,,,,,,,,,594,71,poldrack-categorize,632,1076107,0.0-631.0,537e5cc6-76ec-4b29-863f-59786ad91f0f,,1500,250,stim,,"<div class = centerbox><div class = stroop-stim style = ""color:green"">GREEN</div></div>","66,71,82",1500,test,,,congruent,TRUE,71,,,500,green,green,27365,,survey-text,633,1103728,0.0-633.0,537e5cc6-76ec-4b29-863f-59786ad91f0f,,,,post task questions,,,,,,,,,,,"{""Q0"":""Distinguish colors from words "",""Q1"":""no""}",,,,,1633,13,poldrack-text,634,1106364,0.0-634.0,537e5cc6-76ec-4b29-863f-59786ad91f0f,<div class = centerbox><p class = center-block-text>Thanks for completing this task!</p><p class = center-block-text>Press <strong>enter</strong> to continue.</p></div>,1633,0,end,,,,,,,,,,,,stroop,,,,TRUE1997,13,text,635,1108403,0.0-635.0,537e5cc6-76ec-4b29-863f-59786ad91f0f,,,,,,,,,,,,,,,,,,,,