"rt","key_press","trial_type","trial_index","time_elapsed","internal_node_id","subject","text","block_duration","timing_post_trial","trial_id","view_history","stimulus","possible_responses","stim_duration","exp_stage","correct","correct_response","feedback_duration","condition","stim_color","stim_word","responses","exp_id","credit_var"
"2253","13","text","0","2255","0.0-0.0","191e0077-225d-4e82-b644-99e5e101afb6","","","","","","","","","","","","","","","","","",""
"1375","13","poldrack-text","1","4638","0.0-1.0-0.0","191e0077-225d-4e82-b644-99e5e101afb6","<div class = centerbox><p class = center-block-text>Welcome to the experiment. This experiment will take about 8 minutes. Press <strong>enter</strong> to begin.</p></div>","1375","0","instruction","","","","","","","","","","","","","",""
"14823","","poldrack-instructions","2","19461","0.0-1.0-1.0","191e0077-225d-4e82-b644-99e5e101afb6","","","","instruction","[{""page_index"":0,""viewing_time"":14822}]","","","","","","","","","","","","",""
"2425","13","poldrack-text","3","22892","0.0-2.0","191e0077-225d-4e82-b644-99e5e101afb6","<div class = centerbox><p class = block-text>We will start with a few practice trials. Remember, press the key corresponding to the <strong>ink</strong> color of the word: ""r"" for words colored red, ""b"" for words colored blue, and ""g"" for words colored green.</p><p class = block-text>Press <strong>enter</strong> to begin practice.</p></div>","2425","1000","practice_intro","","","","","","","","","","","","","",""
"-1","-1","poldrack-single-stim","4","24397","0.0-3.0","191e0077-225d-4e82-b644-99e5e101afb6","","500","500","fixation","","<div class = centerbox><div class = fixation>+</div></div>","none","500","practice","","","","","","","","",""
"709","71","poldrack-categorize","5","26910","0.0-4.0","191e0077-225d-4e82-b644-99e5e101afb6","","1500","250","stim","","<div class = centerbox><div class = stroop-stim style = ""color:green"">GREEN</div></div>","66,71,82","1500","practice","true","71","500","congruent","green","green","","",""
"-1","-1","poldrack-single-stim","6","27670","0.0-5.0","191e0077-225d-4e82-b644-99e5e101afb6","","500","500","fixation","","<div class = centerbox><div class = fixation>+</div></div>","none","500","practice","","","","","","","","",""
"823","66","poldrack-categorize","7","30183","0.0-6.0","191e0077-225d-4e82-b644-99e5e101afb6","","1500","250","stim","","<div class = centerbox><div class = stroop-stim style = ""color:blue"">GREEN</div></div>","66,71,82","1500","practice","true","66","500","incongruent","blue","green","","",""
"-1","-1","poldrack-single-stim","8","30943","0.0-7.0","191e0077-225d-4e82-b644-99e5e101afb6","","500","500","fixation","","<div class = centerbox><div class = fixation>+</div></div>","none","500","practice","","","","","","","","",""
"383","82","poldrack-categorize","9","33451","0.0-8.0","191e0077-225d-4e82-b644-99e5e101afb6","","1500","250","stim","","<div class = centerbox><div class = stroop-stim style = ""color:red"">BLUE</div></div>","66,71,82","1500","practice","true","82","500","incongruent","red","blue","","",""
"-1","-1","poldrack-single-stim","10","34212","0.0-9.0","191e0077-225d-4e82-b644-99e5e101afb6","","500","500","fixation","","<div class = centerbox><div class = fixation>+</div></div>","none","500","practice","","","","","","","","",""
"806","71","poldrack-categorize","11","36725","0.0-10.0","191e0077-225d-4e82-b644-99e5e101afb6","","1500","250","stim","","<div class = centerbox><div class = stroop-stim style = ""color:green"">BLUE</div></div>","66,71,82","1500","practice","true","71","500","incongruent","green","blue","","",""
"-1","-1","poldrack-single-stim","12","37486","0.0-11.0","191e0077-225d-4e82-b644-99e5e101afb6","","500","500","fixation","","<div class = centerbox><div class = fixation>+</div></div>","none","500","practice","","","","","","","","",""
"1108","66","poldrack-categorize","13","39999","0.0-12.0","191e0077-225d-4e82-b644-99e5e101afb6","","1500","250","stim","","<div class = centerbox><div class = stroop-stim style = ""color:blue"">BLUE</div></div>","66,71,82","1500","practice","true","66","500","congruent","blue","blue","","",""
"-1","-1","poldrack-single-stim","14","40759","0.0-13.0","191e0077-225d-4e82-b644-99e5e101afb6","","500","500","fixation","","<div class = centerbox><div class = fixation>+</div></div>","none","500","practice","","","","","","","","",""
"530","66","poldrack-categorize","15","43275","0.0-14.0","191e0077-225d-4e82-b644-99e5e101afb6","","1500","250","stim","","<div class = centerbox><div class = stroop-stim style = ""color:blue"">BLUE</div></div>","66,71,82","1500","practice","true","66","500","congruent","blue","blue","","",""
"-1","-1","poldrack-single-stim","16","44033","0.0-15.0","191e0077-225d-4e82-b644-99e5e101afb6","","500","500","fixation","","<div class = centerbox><div class = fixation>+</div></div>","none","500","practice","","","","","","","","",""
"860","82","poldrack-categorize","17","46541","0.0-16.0","191e0077-225d-4e82-b644-99e5e101afb6","","1500","250","stim","","<div class = centerbox><div class = stroop-stim style = ""color:red"">GREEN</div></div>","66,71,82","1500","practice","true","82","500","incongruent","red","green","","",""
"-1","-1","poldrack-single-stim","18","47301","0.0-17.0","191e0077-225d-4e82-b644-99e5e101afb6","","500","500","fixation","","<div class = centerbox><div class = fixation>+</div></div>","none","500","practice","","","","","","","","",""
"828","66","poldrack-categorize","19","49814","0.0-18.0","191e0077-225d-4e82-b644-99e5e101afb6","","1500","250","stim","","<div class = centerbox><div class = stroop-stim style = ""color:blue"">RED</div></div>","66,71,82","1500","practice","true","66","500","incongruent","blue","red","","",""
"-1","-1","poldrack-single-stim","20","50575","0.0-19.0","191e0077-225d-4e82-b644-99e5e101afb6","","500","500","fixation","","<div class = centerbox><div class = fixation>+</div></div>","none","500","practice","","","","","","","","",""
"610","71","poldrack-categorize","21","53088","0.0-20.0","191e0077-225d-4e82-b644-99e5e101afb6","","1500","250","stim","","<div class = centerbox><div class = stroop-stim style = ""color:green"">GREEN</div></div>","66,71,82","1500","practice","true","71","500","congruent","green","green","","",""
"-1","-1","poldrack-single-stim","22","53849","0.0-21.0","191e0077-225d-4e82-b644-99e5e101afb6","","500","500","fixation","","<div class = centerbox><div class = fixation>+</div></div>","none","500","practice","","","","","","","","",""
"707","66","poldrack-categorize","23","56356","0.0-22.0","191e0077-225d-4e82-b644-99e5e101afb6","","1500","250","stim","","<div class = centerbox><div class = stroop-stim style = ""color:blue"">GREEN</div></div>","66,71,82","1500","practice","true","66","500","incongruent","blue","green","","",""
"-1","-1","poldrack-single-stim","24","57117","0.0-23.0","191e0077-225d-4e82-b644-99e5e101afb6","","500","500","fixation","","<div class = centerbox><div class = fixation>+</div></div>","none","500","practice","","","","","","","","",""
"1037","71","poldrack-categorize","25","59630","0.0-24.0","191e0077-225d-4e82-b644-99e5e101afb6","","1500","250","stim","","<div class = centerbox><div class = stroop-stim style = ""color:green"">RED</div></div>","66,71,82","1500","practice","true","71","500","incongruent","green","red","","",""
"-1","-1","poldrack-single-stim","26","60391","0.0-25.0","191e0077-225d-4e82-b644-99e5e101afb6","","500","500","fixation","","<div class = centerbox><div class = fixation>+</div></div>","none","500","practice","","","","","","","","",""
"1002","71","poldrack-categorize","27","62904","0.0-26.0","191e0077-225d-4e82-b644-99e5e101afb6","","1500","250","stim","","<div class = centerbox><div class = stroop-stim style = ""color:green"">BLUE</div></div>","66,71,82","1500","practice","true","71","500","incongruent","green","blue","","",""
"-1","-1","poldrack-single-stim","28","63658","0.0-27.0","191e0077-225d-4e82-b644-99e5e101afb6","","500","500","fixation","","<div class = centerbox><div class = fixation>+</div></div>","none","500","practice","","","","","","","","",""
"542","71","poldrack-categorize","29","66172","0.0-28.0","191e0077-225d-4e82-b644-99e5e101afb6","","1500","250","stim","","<div class = centerbox><div class = stroop-stim style = ""color:green"">GREEN</div></div>","66,71,82","1500","practice","true","71","500","congruent","green","green","","",""
"-1","-1","poldrack-single-stim","30","66932","0.0-29.0","191e0077-225d-4e82-b644-99e5e101afb6","","500","500","fixation","","<div class = centerbox><div class = fixation>+</div></div>","none","500","practice","","","","","","","","",""
"644","66","poldrack-categorize","31","69444","0.0-30.0","191e0077-225d-4e82-b644-99e5e101afb6","","1500","250","stim","","<div class = centerbox><div class = stroop-stim style = ""color:blue"">BLUE</div></div>","66,71,82","1500","practice","true","66","500","congruent","blue","blue","","",""
"-1","-1","poldrack-single-stim","32","70200","0.0-31.0","191e0077-225d-4e82-b644-99e5e101afb6","","500","500","fixation","","<div class = centerbox><div class = fixation>+</div></div>","none","500","practice","","","","","","","","",""
"880","82","poldrack-categorize","33","72714","0.0-32.0","191e0077-225d-4e82-b644-99e5e101afb6","","1500","250","stim","","<div class = centerbox><div class = stroop-stim style = ""color:red"">GREEN</div></div>","66,71,82","1500","practice","true","82","500","incongruent","red","green","","",""
"-1","-1","poldrack-single-stim","34","73474","0.0-33.0","191e0077-225d-4e82-b644-99e5e101afb6","","500","500","fixation","","<div class = centerbox><div class = fixation>+</div></div>","none","500","practice","","","","","","","","",""
"431","82","poldrack-categorize","35","75987","0.0-34.0","191e0077-225d-4e82-b644-99e5e101afb6","","1500","250","stim","","<div class = centerbox><div class = stroop-stim style = ""color:red"">RED</div></div>","66,71,82","1500","practice","true","82","500","congruent","red","red","","",""
"-1","-1","poldrack-single-stim","36","76748","0.0-35.0","191e0077-225d-4e82-b644-99e5e101afb6","","500","500","fixation","","<div class = centerbox><div class = fixation>+</div></div>","none","500","practice","","","","","","","","",""
"411","82","poldrack-categorize","37","79261","0.0-36.0","191e0077-225d-4e82-b644-99e5e101afb6","","1500","250","stim","","<div class = centerbox><div class = stroop-stim style = ""color:red"">RED</div></div>","66,71,82","1500","practice","true","82","500","congruent","red","red","","",""
"-1","-1","poldrack-single-stim","38","80022","0.0-37.0","191e0077-225d-4e82-b644-99e5e101afb6","","500","500","fixation","","<div class = centerbox><div class = fixation>+</div></div>","none","500","practice","","","","","","","","",""
"393","82","poldrack-categorize","39","82535","0.0-38.0","191e0077-225d-4e82-b644-99e5e101afb6","","1500","250","stim","","<div class = centerbox><div class = stroop-stim style = ""color:red"">RED</div></div>","66,71,82","1500","practice","true","82","500","congruent","red","red","","",""
"-1","-1","poldrack-single-stim","40","83295","0.0-39.0","191e0077-225d-4e82-b644-99e5e101afb6","","500","500","fixation","","<div class = centerbox><div class = fixation>+</div></div>","none","500","practice","","","","","","","","",""
"648","82","poldrack-categorize","41","85809","0.0-40.0","191e0077-225d-4e82-b644-99e5e101afb6","","1500","250","stim","","<div class = centerbox><div class = stroop-stim style = ""color:red"">RED</div></div>","66,71,82","1500","practice","true","82","500","congruent","red","red","","",""
"-1","-1","poldrack-single-stim","42","86569","0.0-41.0","191e0077-225d-4e82-b644-99e5e101afb6","","500","500","fixation","","<div class = centerbox><div class = fixation>+</div></div>","none","500","practice","","","","","","","","",""
"445","82","poldrack-categorize","43","89083","0.0-42.0","191e0077-225d-4e82-b644-99e5e101afb6","","1500","250","stim","","<div class = centerbox><div class = stroop-stim style = ""color:red"">BLUE</div></div>","66,71,82","1500","practice","true","82","500","incongruent","red","blue","","",""
"-1","-1","poldrack-single-stim","44","89843","0.0-43.0","191e0077-225d-4e82-b644-99e5e101afb6","","500","500","fixation","","<div class = centerbox><div class = fixation>+</div></div>","none","500","practice","","","","","","","","",""
"579","71","poldrack-categorize","45","92356","0.0-44.0","191e0077-225d-4e82-b644-99e5e101afb6","","1500","250","stim","","<div class = centerbox><div class = stroop-stim style = ""color:green"">GREEN</div></div>","66,71,82","1500","practice","true","71","500","congruent","green","green","","",""
"-1","-1","poldrack-single-stim","46","93117","0.0-45.0","191e0077-225d-4e82-b644-99e5e101afb6","","500","500","fixation","","<div class = centerbox><div class = fixation>+</div></div>","none","500","practice","","","","","","","","",""
"609","66","poldrack-categorize","47","95630","0.0-46.0","191e0077-225d-4e82-b644-99e5e101afb6","","1500","250","stim","","<div class = centerbox><div class = stroop-stim style = ""color:blue"">BLUE</div></div>","66,71,82","1500","practice","true","66","500","congruent","blue","blue","","",""
"-1","-1","poldrack-single-stim","48","96391","0.0-47.0","191e0077-225d-4e82-b644-99e5e101afb6","","500","500","fixation","","<div class = centerbox><div class = fixation>+</div></div>","none","500","practice","","","","","","","","",""
"616","71","poldrack-categorize","49","98904","0.0-48.0","191e0077-225d-4e82-b644-99e5e101afb6","","1500","250","stim","","<div class = centerbox><div class = stroop-stim style = ""color:green"">RED</div></div>","66,71,82","1500","practice","true","71","500","incongruent","green","red","","",""
"-1","-1","poldrack-single-stim","50","99665","0.0-49.0","191e0077-225d-4e82-b644-99e5e101afb6","","500","500","fixation","","<div class = centerbox><div class = fixation>+</div></div>","none","500","practice","","","","","","","","",""
"717","66","poldrack-categorize","51","102178","0.0-50.0","191e0077-225d-4e82-b644-99e5e101afb6","","1500","250","stim","","<div class = centerbox><div class = stroop-stim style = ""color:blue"">RED</div></div>","66,71,82","1500","practice","true","66","500","incongruent","blue","red","","",""
"2765","13","poldrack-text","52","105198","0.0-52.0","191e0077-225d-4e82-b644-99e5e101afb6","<div class = centerbox><p class = center-block-text>We will now start the test. Respond exactly like you did during practice.</p><p class = center-block-text>Press <strong>enter</strong> to begin the test.</p></div>","2765","1000","test_intro","","","","","","","","","","","","","",""
"-1","-1","poldrack-single-stim","53","106705","0.0-53.0","191e0077-225d-4e82-b644-99e5e101afb6","","500","500","fixation","","<div class = centerbox><div class = fixation>+</div></div>","none","500","test","","","","","","","","",""
"768","71","poldrack-categorize","54","109213","0.0-54.0","191e0077-225d-4e82-b644-99e5e101afb6","","1500","250","stim","","<div class = centerbox><div class = stroop-stim style = ""color:green"">GREEN</div></div>","66,71,82","1500","test","true","71","500","congruent","green","green","","",""
"-1","-1","poldrack-single-stim","55","109974","0.0-55.0","191e0077-225d-4e82-b644-99e5e101afb6","","500","500","fixation","","<div class = centerbox><div class = fixation>+</div></div>","none","500","test","","","","","","","","",""
"512","66","poldrack-categorize","56","112485","0.0-56.0","191e0077-225d-4e82-b644-99e5e101afb6","","1500","250","stim","","<div class = centerbox><div class = stroop-stim style = ""color:blue"">BLUE</div></div>","66,71,82","1500","test","true","66","500","congruent","blue","blue","","",""
"-1","-1","poldrack-single-stim","57","113239","0.0-57.0","191e0077-225d-4e82-b644-99e5e101afb6","","500","500","fixation","","<div class = centerbox><div class = fixation>+</div></div>","none","500","test","","","","","","","","",""
"424","66","poldrack-categorize","58","115743","0.0-58.0","191e0077-225d-4e82-b644-99e5e101afb6","","1500","250","stim","","<div class = centerbox><div class = stroop-stim style = ""color:blue"">BLUE</div></div>","66,71,82","1500","test","true","66","500","congruent","blue","blue","","",""
"-1","-1","poldrack-single-stim","59","116504","0.0-59.0","191e0077-225d-4e82-b644-99e5e101afb6","","500","500","fixation","","<div class = centerbox><div class = fixation>+</div></div>","none","500","test","","","","","","","","",""
"636","82","poldrack-categorize","60","119017","0.0-60.0","191e0077-225d-4e82-b644-99e5e101afb6","","1500","250","stim","","<div class = centerbox><div class = stroop-stim style = ""color:red"">BLUE</div></div>","66,71,82","1500","test","true","82","500","incongruent","red","blue","","",""
"-1","-1","poldrack-single-stim","61","119774","0.0-61.0","191e0077-225d-4e82-b644-99e5e101afb6","","500","500","fixation","","<div class = centerbox><div class = fixation>+</div></div>","none","500","test","","","","","","","","",""
"408","71","poldrack-categorize","62","122285","0.0-62.0","191e0077-225d-4e82-b644-99e5e101afb6","","1500","250","stim","","<div class = centerbox><div class = stroop-stim style = ""color:green"">GREEN</div></div>","66,71,82","1500","test","true","71","500","congruent","green","green","","",""
"-1","-1","poldrack-single-stim","63","123045","0.0-63.0","191e0077-225d-4e82-b644-99e5e101afb6","","500","500","fixation","","<div class = centerbox><div class = fixation>+</div></div>","none","500","test","","","","","","","","",""
"545","66","poldrack-categorize","64","125559","0.0-64.0","191e0077-225d-4e82-b644-99e5e101afb6","","1500","250","stim","","<div class = centerbox><div class = stroop-stim style = ""color:blue"">GREEN</div></div>","66,71,82","1500","test","true","66","500","incongruent","blue","green","","",""
"-1","-1","poldrack-single-stim","65","126319","0.0-65.0","191e0077-225d-4e82-b644-99e5e101afb6","","500","500","fixation","","<div class = centerbox><div class = fixation>+</div></div>","none","500","test","","","","","","","","",""
"422","66","poldrack-categorize","66","128833","0.0-66.0","191e0077-225d-4e82-b644-99e5e101afb6","","1500","250","stim","","<div class = centerbox><div class = stroop-stim style = ""color:blue"">GREEN</div></div>","66,71,82","1500","test","true","66","500","incongruent","blue","green","","",""
"-1","-1","poldrack-single-stim","67","129593","0.0-67.0","191e0077-225d-4e82-b644-99e5e101afb6","","500","500","fixation","","<div class = centerbox><div class = fixation>+</div></div>","none","500","test","","","","","","","","",""
"476","82","poldrack-categorize","68","132107","0.0-68.0","191e0077-225d-4e82-b644-99e5e101afb6","","1500","250","stim","","<div class = centerbox><div class = stroop-stim style = ""color:red"">RED</div></div>","66,71,82","1500","test","true","82","500","congruent","red","red","","",""
"-1","-1","poldrack-single-stim","69","132867","0.0-69.0","191e0077-225d-4e82-b644-99e5e101afb6","","500","500","fixation","","<div class = centerbox><div class = fixation>+</div></div>","none","500","test","","","","","","","","",""
"378","82","poldrack-categorize","70","135380","0.0-70.0","191e0077-225d-4e82-b644-99e5e101afb6","","1500","250","stim","","<div class = centerbox><div class = stroop-stim style = ""color:red"">RED</div></div>","66,71,82","1500","test","true","82","500","congruent","red","red","","",""
"-1","-1","poldrack-single-stim","71","136141","0.0-71.0","191e0077-225d-4e82-b644-99e5e101afb6","","500","500","fixation","","<div class = centerbox><div class = fixation>+</div></div>","none","500","test","","","","","","","","",""
"377","82","poldrack-categorize","72","138648","0.0-72.0","191e0077-225d-4e82-b644-99e5e101afb6","","1500","250","stim","","<div class = centerbox><div class = stroop-stim style = ""color:red"">GREEN</div></div>","66,71,82","1500","test","true","82","500","incongruent","red","green","","",""
"-1","-1","poldrack-single-stim","73","139409","0.0-73.0","191e0077-225d-4e82-b644-99e5e101afb6","","500","500","fixation","","<div class = centerbox><div class = fixation>+</div></div>","none","500","test","","","","","","","","",""
"667","71","poldrack-categorize","74","141922","0.0-74.0","191e0077-225d-4e82-b644-99e5e101afb6","","1500","250","stim","","<div class = centerbox><div class = stroop-stim style = ""color:green"">GREEN</div></div>","66,71,82","1500","test","true","71","500","congruent","green","green","","",""
"-1","-1","poldrack-single-stim","75","142683","0.0-75.0","191e0077-225d-4e82-b644-99e5e101afb6","","500","500","fixation","","<div class = centerbox><div class = fixation>+</div></div>","none","500","test","","","","","","","","",""
"698","71","poldrack-categorize","76","145196","0.0-76.0","191e0077-225d-4e82-b644-99e5e101afb6","","1500","250","stim","","<div class = centerbox><div class = stroop-stim style = ""color:green"">RED</div></div>","66,71,82","1500","test","true","71","500","incongruent","green","red","","",""
"-1","-1","poldrack-single-stim","77","145956","0.0-77.0","191e0077-225d-4e82-b644-99e5e101afb6","","500","500","fixation","","<div class = centerbox><div class = fixation>+</div></div>","none","500","test","","","","","","","","",""
"464","71","poldrack-categorize","78","148470","0.0-78.0","191e0077-225d-4e82-b644-99e5e101afb6","","1500","250","stim","","<div class = centerbox><div class = stroop-stim style = ""color:green"">BLUE</div></div>","66,71,82","1500","test","true","71","500","incongruent","green","blue","","",""
"-1","-1","poldrack-single-stim","79","149230","0.0-79.0","191e0077-225d-4e82-b644-99e5e101afb6","","500","500","fixation","","<div class = centerbox><div class = fixation>+</div></div>","none","500","test","","","","","","","","",""
"749","71","poldrack-categorize","80","151743","0.0-80.0","191e0077-225d-4e82-b644-99e5e101afb6","","1500","250","stim","","<div class = centerbox><div class = stroop-stim style = ""color:green"">GREEN</div></div>","66,71,82","1500","test","true","71","500","congruent","green","green","","",""
"-1","-1","poldrack-single-stim","81","152501","0.0-81.0","191e0077-225d-4e82-b644-99e5e101afb6","","500","500","fixation","","<div class = centerbox><div class = fixation>+</div></div>","none","500","test","","","","","","","","",""
"501","82","poldrack-categorize","82","155011","0.0-82.0","191e0077-225d-4e82-b644-99e5e101afb6","","1500","250","stim","","<div class = centerbox><div class = stroop-stim style = ""color:red"">RED</div></div>","66,71,82","1500","test","true","82","500","congruent","red","red","","",""
"-1","-1","poldrack-single-stim","83","155772","0.0-83.0","191e0077-225d-4e82-b644-99e5e101afb6","","500","500","fixation","","<div class = centerbox><div class = fixation>+</div></div>","none","500","test","","","","","","","","",""
"614","66","poldrack-categorize","84","158285","0.0-84.0","191e0077-225d-4e82-b644-99e5e101afb6","","1500","250","stim","","<div class = centerbox><div class = stroop-stim style = ""color:blue"">BLUE</div></div>","66,71,82","1500","test","true","66","500","congruent","blue","blue","","",""
"-1","-1","poldrack-single-stim","85","159046","0.0-85.0","191e0077-225d-4e82-b644-99e5e101afb6","","500","500","fixation","","<div class = centerbox><div class = fixation>+</div></div>","none","500","test","","","","","","","","",""
"598","71","poldrack-categorize","86","161559","0.0-86.0","191e0077-225d-4e82-b644-99e5e101afb6","","1500","250","stim","","<div class = centerbox><div class = stroop-stim style = ""color:green"">BLUE</div></div>","66,71,82","1500","test","true","71","500","incongruent","green","blue","","",""
"-1","-1","poldrack-single-stim","87","162321","0.0-87.0","191e0077-225d-4e82-b644-99e5e101afb6","","500","500","fixation","","<div class = centerbox><div class = fixation>+</div></div>","none","500","test","","","","","","","","",""
"706","71","poldrack-categorize","88","164833","0.0-88.0","191e0077-225d-4e82-b644-99e5e101afb6","","1500","250","stim","","<div class = centerbox><div class = stroop-stim style = ""color:green"">BLUE</div></div>","66,71,82","1500","test","true","71","500","incongruent","green","blue","","",""
"-1","-1","poldrack-single-stim","89","165593","0.0-89.0","191e0077-225d-4e82-b644-99e5e101afb6","","500","500","fixation","","<div class = centerbox><div class = fixation>+</div></div>","none","500","test","","","","","","","","",""
"522","71","poldrack-categorize","90","168107","0.0-90.0","191e0077-225d-4e82-b644-99e5e101afb6","","1500","250","stim","","<div class = centerbox><div class = stroop-stim style = ""color:green"">RED</div></div>","66,71,82","1500","test","true","71","500","incongruent","green","red","","",""
"-1","-1","poldrack-single-stim","91","168863","0.0-91.0","191e0077-225d-4e82-b644-99e5e101afb6","","500","500","fixation","","<div class = centerbox><div class = fixation>+</div></div>","none","500","test","","","","","","","","",""
"594","71","poldrack-categorize","92","171375","0.0-92.0","191e0077-225d-4e82-b644-99e5e101afb6","","1500","250","stim","","<div class = centerbox><div class = stroop-stim style = ""color:green"">GREEN</div></div>","66,71,82","1500","test","true","71","500","congruent","green","green","","",""
"-1","-1","poldrack-single-stim","93","172129","0.0-93.0","191e0077-225d-4e82-b644-99e5e101afb6","","500","500","fixation","","<div class = centerbox><div class = fixation>+</div></div>","none","500","test","","","","","","","","",""
"575","71","poldrack-categorize","94","174643","0.0-94.0","191e0077-225d-4e82-b644-99e5e101afb6","","1500","250","stim","","<div class = centerbox><div class = stroop-stim style = ""color:green"">BLUE</div></div>","66,71,82","1500","test","true","71","500","incongruent","green","blue","","",""
"-1","-1","poldrack-single-stim","95","175403","0.0-95.0","191e0077-225d-4e82-b644-99e5e101afb6","","500","500","fixation","","<div class = centerbox><div class = fixation>+</div></div>","none","500","test","","","","","","","","",""
"655","82","poldrack-categorize","96","177916","0.0-96.0","191e0077-225d-4e82-b644-99e5e101afb6","","1500","250","stim","","<div class = centerbox><div class = stroop-stim style = ""color:red"">GREEN</div></div>","66,71,82","1500","test","true","82","500","incongruent","red","green","","",""
"-1","-1","poldrack-single-stim","97","178671","0.0-97.0","191e0077-225d-4e82-b644-99e5e101afb6","","500","500","fixation","","<div class = centerbox><div class = fixation>+</div></div>","none","500","test","","","","","","","","",""
"593","66","poldrack-categorize","98","181184","0.0-98.0","191e0077-225d-4e82-b644-99e5e101afb6","","1500","250","stim","","<div class = centerbox><div class = stroop-stim style = ""color:blue"">GREEN</div></div>","66,71,82","1500","test","true","66","500","incongruent","blue","green","","",""
"-1","-1","poldrack-single-stim","99","181945","0.0-99.0","191e0077-225d-4e82-b644-99e5e101afb6","","500","500","fixation","","<div class = centerbox><div class = fixation>+</div></div>","none","500","test","","","","","","","","",""
"832","71","poldrack-categorize","100","184458","0.0-100.0","191e0077-225d-4e82-b644-99e5e101afb6","","1500","250","stim","","<div class = centerbox><div class = stroop-stim style = ""color:green"">RED</div></div>","66,71,82","1500","test","true","71","500","incongruent","green","red","","",""
"-1","-1","poldrack-single-stim","101","185219","0.0-101.0","191e0077-225d-4e82-b644-99e5e101afb6","","500","500","fixation","","<div class = centerbox><div class = fixation>+</div></div>","none","500","test","","","","","","","","",""
"671","66","poldrack-categorize","102","187733","0.0-102.0","191e0077-225d-4e82-b644-99e5e101afb6","","1500","250","stim","","<div class = centerbox><div class = stroop-stim style = ""color:blue"">GREEN</div></div>","66,71,82","1500","test","true","66","500","incongruent","blue","green","","",""
"-1","-1","poldrack-single-stim","103","188493","0.0-103.0","191e0077-225d-4e82-b644-99e5e101afb6","","500","500","fixation","","<div class = centerbox><div class = fixation>+</div></div>","none","500","test","","","","","","","","",""
"427","82","poldrack-categorize","104","191006","0.0-104.0","191e0077-225d-4e82-b644-99e5e101afb6","","1500","250","stim","","<div class = centerbox><div class = stroop-stim style = ""color:red"">BLUE</div></div>","66,71,82","1500","test","true","82","500","incongruent","red","blue","","",""
"-1","-1","poldrack-single-stim","105","191766","0.0-105.0","191e0077-225d-4e82-b644-99e5e101afb6","","500","500","fixation","","<div class = centerbox><div class = fixation>+</div></div>","none","500","test","","","","","","","","",""
"433","71","poldrack-categorize","106","194280","0.0-106.0","191e0077-225d-4e82-b644-99e5e101afb6","","1500","250","stim","","<div class = centerbox><div class = stroop-stim style = ""color:green"">BLUE</div></div>","66,71,82","1500","test","true","71","500","incongruent","green","blue","","",""
"-1","-1","poldrack-single-stim","107","195040","0.0-107.0","191e0077-225d-4e82-b644-99e5e101afb6","","500","500","fixation","","<div class = centerbox><div class = fixation>+</div></div>","none","500","test","","","","","","","","",""
"977","82","poldrack-categorize","108","197552","0.0-108.0","191e0077-225d-4e82-b644-99e5e101afb6","","1500","250","stim","","<div class = centerbox><div class = stroop-stim style = ""color:red"">RED</div></div>","66,71,82","1500","test","true","82","500","congruent","red","red","","",""
"-1","-1","poldrack-single-stim","109","198308","0.0-109.0","191e0077-225d-4e82-b644-99e5e101afb6","","500","500","fixation","","<div class = centerbox><div class = fixation>+</div></div>","none","500","test","","","","","","","","",""
"483","82","poldrack-categorize","110","200821","0.0-110.0","191e0077-225d-4e82-b644-99e5e101afb6","","1500","250","stim","","<div class = centerbox><div class = stroop-stim style = ""color:red"">GREEN</div></div>","66,71,82","1500","test","true","82","500","incongruent","red","green","","",""
"-1","-1","poldrack-single-stim","111","201582","0.0-111.0","191e0077-225d-4e82-b644-99e5e101afb6","","500","500","fixation","","<div class = centerbox><div class = fixation>+</div></div>","none","500","test","","","","","","","","",""
"658","71","poldrack-categorize","112","204095","0.0-112.0","191e0077-225d-4e82-b644-99e5e101afb6","","1500","250","stim","","<div class = centerbox><div class = stroop-stim style = ""color:green"">BLUE</div></div>","66,71,82","1500","test","true","71","500","incongruent","green","blue","","",""
"-1","-1","poldrack-single-stim","113","204854","0.0-113.0","191e0077-225d-4e82-b644-99e5e101afb6","","500","500","fixation","","<div class = centerbox><div class = fixation>+</div></div>","none","500","test","","","","","","","","",""
"752","82","poldrack-categorize","114","207369","0.0-114.0","191e0077-225d-4e82-b644-99e5e101afb6","","1500","250","stim","","<div class = centerbox><div class = stroop-stim style = ""color:red"">GREEN</div></div>","66,71,82","1500","test","true","82","500","incongruent","red","green","","",""
"-1","-1","poldrack-single-stim","115","208130","0.0-115.0","191e0077-225d-4e82-b644-99e5e101afb6","","500","500","fixation","","<div class = centerbox><div class = fixation>+</div></div>","none","500","test","","","","","","","","",""
"424","82","poldrack-categorize","116","210637","0.0-116.0","191e0077-225d-4e82-b644-99e5e101afb6","","1500","250","stim","","<div class = centerbox><div class = stroop-stim style = ""color:red"">GREEN</div></div>","66,71,82","1500","test","true","82","500","incongruent","red","green","","",""
"-1","-1","poldrack-single-stim","117","211398","0.0-117.0","191e0077-225d-4e82-b644-99e5e101afb6","","500","500","fixation","","<div class = centerbox><div class = fixation>+</div></div>","none","500","test","","","","","","","","",""
"522","71","poldrack-categorize","118","213911","0.0-118.0","191e0077-225d-4e82-b644-99e5e101afb6","","1500","250","stim","","<div class = centerbox><div class = stroop-stim style = ""color:green"">RED</div></div>","66,71,82","1500","test","true","71","500","incongruent","green","red","","",""
"-1","-1","poldrack-single-stim","119","214672","0.0-119.0","191e0077-225d-4e82-b644-99e5e101afb6","","500","500","fixation","","<div class = centerbox><div class = fixation>+</div></div>","none","500","test","","","","","","","","",""
"535","82","poldrack-categorize","120","217185","0.0-120.0","191e0077-225d-4e82-b644-99e5e101afb6","","1500","250","stim","","<div class = centerbox><div class = stroop-stim style = ""color:red"">GREEN</div></div>","66,71,82","1500","test","true","82","500","incongruent","red","green","","",""
"-1","-1","poldrack-single-stim","121","217939","0.0-121.0","191e0077-225d-4e82-b644-99e5e101afb6","","500","500","fixation","","<div class = centerbox><div class = fixation>+</div></div>","none","500","test","","","","","","","","",""
"427","66","poldrack-categorize","122","220453","0.0-122.0","191e0077-225d-4e82-b644-99e5e101afb6","","1500","250","stim","","<div class = centerbox><div class = stroop-stim style = ""color:blue"">BLUE</div></div>","66,71,82","1500","test","true","66","500","congruent","blue","blue","","",""
"-1","-1","poldrack-single-stim","123","221213","0.0-123.0","191e0077-225d-4e82-b644-99e5e101afb6","","500","500","fixation","","<div class = centerbox><div class = fixation>+</div></div>","none","500","test","","","","","","","","",""
"395","66","poldrack-categorize","124","223726","0.0-124.0","191e0077-225d-4e82-b644-99e5e101afb6","","1500","250","stim","","<div class = centerbox><div class = stroop-stim style = ""color:blue"">BLUE</div></div>","66,71,82","1500","test","true","66","500","congruent","blue","blue","","",""
"-1","-1","poldrack-single-stim","125","224487","0.0-125.0","191e0077-225d-4e82-b644-99e5e101afb6","","500","500","fixation","","<div class = centerbox><div class = fixation>+</div></div>","none","500","test","","","","","","","","",""
"415","66","poldrack-categorize","126","227000","0.0-126.0","191e0077-225d-4e82-b644-99e5e101afb6","","1500","250","stim","","<div class = centerbox><div class = stroop-stim style = ""color:blue"">BLUE</div></div>","66,71,82","1500","test","true","66","500","congruent","blue","blue","","",""
"-1","-1","poldrack-single-stim","127","227755","0.0-127.0","191e0077-225d-4e82-b644-99e5e101afb6","","500","500","fixation","","<div class = centerbox><div class = fixation>+</div></div>","none","500","test","","","","","","","","",""
"698","82","poldrack-categorize","128","230268","0.0-128.0","191e0077-225d-4e82-b644-99e5e101afb6","","1500","250","stim","","<div class = centerbox><div class = stroop-stim style = ""color:red"">RED</div></div>","66,71,82","1500","test","true","82","500","congruent","red","red","","",""
"-1","-1","poldrack-single-stim","129","231029","0.0-129.0","191e0077-225d-4e82-b644-99e5e101afb6","","500","500","fixation","","<div class = centerbox><div class = fixation>+</div></div>","none","500","test","","","","","","","","",""
"650","71","poldrack-categorize","130","233542","0.0-130.0","191e0077-225d-4e82-b644-99e5e101afb6","","1500","250","stim","","<div class = centerbox><div class = stroop-stim style = ""color:green"">BLUE</div></div>","66,71,82","1500","test","true","71","500","incongruent","green","blue","","",""
"-1","-1","poldrack-single-stim","131","234303","0.0-131.0","191e0077-225d-4e82-b644-99e5e101afb6","","500","500","fixation","","<div class = centerbox><div class = fixation>+</div></div>","none","500","test","","","","","","","","",""
"552","82","poldrack-categorize","132","236816","0.0-132.0","191e0077-225d-4e82-b644-99e5e101afb6","","1500","250","stim","","<div class = centerbox><div class = stroop-stim style = ""color:red"">RED</div></div>","66,71,82","1500","test","true","82","500","congruent","red","red","","",""
"-1","-1","poldrack-single-stim","133","237576","0.0-133.0","191e0077-225d-4e82-b644-99e5e101afb6","","500","500","fixation","","<div class = centerbox><div class = fixation>+</div></div>","none","500","test","","","","","","","","",""
"692","66","poldrack-categorize","134","240088","0.0-134.0","191e0077-225d-4e82-b644-99e5e101afb6","","1500","250","stim","","<div class = centerbox><div class = stroop-stim style = ""color:blue"">RED</div></div>","66,71,82","1500","test","true","66","500","incongruent","blue","red","","",""
"-1","-1","poldrack-single-stim","135","240844","0.0-135.0","191e0077-225d-4e82-b644-99e5e101afb6","","500","500","fixation","","<div class = centerbox><div class = fixation>+</div></div>","none","500","test","","","","","","","","",""
"424","82","poldrack-categorize","136","243358","0.0-136.0","191e0077-225d-4e82-b644-99e5e101afb6","","1500","250","stim","","<div class = centerbox><div class = stroop-stim style = ""color:red"">RED</div></div>","66,71,82","1500","test","true","82","500","congruent","red","red","","",""
"-1","-1","poldrack-single-stim","137","244118","0.0-137.0","191e0077-225d-4e82-b644-99e5e101afb6","","500","500","fixation","","<div class = centerbox><div class = fixation>+</div></div>","none","500","test","","","","","","","","",""
"800","71","poldrack-categorize","138","246631","0.0-138.0","191e0077-225d-4e82-b644-99e5e101afb6","","1500","250","stim","","<div class = centerbox><div class = stroop-stim style = ""color:blue"">RED</div></div>","66,71,82","1500","test","false","66","500","incongruent","blue","red","","",""
"-1","-1","poldrack-single-stim","139","247392","0.0-139.0","191e0077-225d-4e82-b644-99e5e101afb6","","500","500","fixation","","<div class = centerbox><div class = fixation>+</div></div>","none","500","test","","","","","","","","",""
"598","66","poldrack-categorize","140","249905","0.0-140.0","191e0077-225d-4e82-b644-99e5e101afb6","","1500","250","stim","","<div class = centerbox><div class = stroop-stim style = ""color:blue"">BLUE</div></div>","66,71,82","1500","test","true","66","500","congruent","blue","blue","","",""
"-1","-1","poldrack-single-stim","141","250666","0.0-141.0","191e0077-225d-4e82-b644-99e5e101afb6","","500","500","fixation","","<div class = centerbox><div class = fixation>+</div></div>","none","500","test","","","","","","","","",""
"731","66","poldrack-categorize","142","253176","0.0-142.0","191e0077-225d-4e82-b644-99e5e101afb6","","1500","250","stim","","<div class = centerbox><div class = stroop-stim style = ""color:blue"">BLUE</div></div>","66,71,82","1500","test","true","66","500","congruent","blue","blue","","",""
"-1","-1","poldrack-single-stim","143","253934","0.0-143.0","191e0077-225d-4e82-b644-99e5e101afb6","","500","500","fixation","","<div class = centerbox><div class = fixation>+</div></div>","none","500","test","","","","","","","","",""
"581","82","poldrack-categorize","144","256450","0.0-144.0","191e0077-225d-4e82-b644-99e5e101afb6","","1500","250","stim","","<div class = centerbox><div class = stroop-stim style = ""color:green"">RED</div></div>","66,71,82","1500","test","false","71","500","incongruent","green","red","","",""
"-1","-1","poldrack-single-stim","145","257208","0.0-145.0","191e0077-225d-4e82-b644-99e5e101afb6","","500","500","fixation","","<div class = centerbox><div class = fixation>+</div></div>","none","500","test","","","","","","","","",""
"612","66","poldrack-categorize","146","259721","0.0-146.0","191e0077-225d-4e82-b644-99e5e101afb6","","1500","250","stim","","<div class = centerbox><div class = stroop-stim style = ""color:blue"">BLUE</div></div>","66,71,82","1500","test","true","66","500","congruent","blue","blue","","",""
"-1","-1","poldrack-single-stim","147","260481","0.0-147.0","191e0077-225d-4e82-b644-99e5e101afb6","","500","500","fixation","","<div class = centerbox><div class = fixation>+</div></div>","none","500","test","","","","","","","","",""
"419","66","poldrack-categorize","148","262995","0.0-148.0","191e0077-225d-4e82-b644-99e5e101afb6","","1500","250","stim","","<div class = centerbox><div class = stroop-stim style = ""color:blue"">GREEN</div></div>","66,71,82","1500","test","true","66","500","incongruent","blue","green","","",""
"-1","-1","poldrack-single-stim","149","263755","0.0-149.0","191e0077-225d-4e82-b644-99e5e101afb6","","500","500","fixation","","<div class = centerbox><div class = fixation>+</div></div>","none","500","test","","","","","","","","",""
"833","71","poldrack-categorize","150","266263","0.0-150.0","191e0077-225d-4e82-b644-99e5e101afb6","","1500","250","stim","","<div class = centerbox><div class = stroop-stim style = ""color:green"">RED</div></div>","66,71,82","1500","test","true","71","500","incongruent","green","red","","",""
"-1","-1","poldrack-single-stim","151","267023","0.0-151.0","191e0077-225d-4e82-b644-99e5e101afb6","","500","500","fixation","","<div class = centerbox><div class = fixation>+</div></div>","none","500","test","","","","","","","","",""
"852","82","poldrack-categorize","152","269536","0.0-152.0","191e0077-225d-4e82-b644-99e5e101afb6","","1500","250","stim","","<div class = centerbox><div class = stroop-stim style = ""color:red"">BLUE</div></div>","66,71,82","1500","test","true","82","500","incongruent","red","blue","","",""
"-1","-1","poldrack-single-stim","153","270295","0.0-153.0","191e0077-225d-4e82-b644-99e5e101afb6","","500","500","fixation","","<div class = centerbox><div class = fixation>+</div></div>","none","500","test","","","","","","","","",""
"539","66","poldrack-categorize","154","272810","0.0-154.0","191e0077-225d-4e82-b644-99e5e101afb6","","1500","250","stim","","<div class = centerbox><div class = stroop-stim style = ""color:blue"">BLUE</div></div>","66,71,82","1500","test","true","66","500","congruent","blue","blue","","",""
"-1","-1","poldrack-single-stim","155","273571","0.0-155.0","191e0077-225d-4e82-b644-99e5e101afb6","","500","500","fixation","","<div class = centerbox><div class = fixation>+</div></div>","none","500","test","","","","","","","","",""
"697","71","poldrack-categorize","156","276084","0.0-156.0","191e0077-225d-4e82-b644-99e5e101afb6","","1500","250","stim","","<div class = centerbox><div class = stroop-stim style = ""color:red"">RED</div></div>","66,71,82","1500","test","false","82","500","congruent","red","red","","",""
"-1","-1","poldrack-single-stim","157","276845","0.0-157.0","191e0077-225d-4e82-b644-99e5e101afb6","","500","500","fixation","","<div class = centerbox><div class = fixation>+</div></div>","none","500","test","","","","","","","","",""
"766","82","poldrack-categorize","158","279358","0.0-158.0","191e0077-225d-4e82-b644-99e5e101afb6","","1500","250","stim","","<div class = centerbox><div class = stroop-stim style = ""color:red"">RED</div></div>","66,71,82","1500","test","true","82","500","congruent","red","red","","",""
"-1","-1","poldrack-single-stim","159","280119","0.0-159.0","191e0077-225d-4e82-b644-99e5e101afb6","","500","500","fixation","","<div class = centerbox><div class = fixation>+</div></div>","none","500","test","","","","","","","","",""
"1006","71","poldrack-categorize","160","282632","0.0-160.0","191e0077-225d-4e82-b644-99e5e101afb6","","1500","250","stim","","<div class = centerbox><div class = stroop-stim style = ""color:green"">GREEN</div></div>","66,71,82","1500","test","true","71","500","congruent","green","green","","",""
"-1","-1","poldrack-single-stim","161","283393","0.0-161.0","191e0077-225d-4e82-b644-99e5e101afb6","","500","500","fixation","","<div class = centerbox><div class = fixation>+</div></div>","none","500","test","","","","","","","","",""
"664","66","poldrack-categorize","162","285906","0.0-162.0","191e0077-225d-4e82-b644-99e5e101afb6","","1500","250","stim","","<div class = centerbox><div class = stroop-stim style = ""color:blue"">RED</div></div>","66,71,82","1500","test","true","66","500","incongruent","blue","red","","",""
"-1","-1","poldrack-single-stim","163","286666","0.0-163.0","191e0077-225d-4e82-b644-99e5e101afb6","","500","500","fixation","","<div class = centerbox><div class = fixation>+</div></div>","none","500","test","","","","","","","","",""
"695","66","poldrack-categorize","164","289179","0.0-164.0","191e0077-225d-4e82-b644-99e5e101afb6","","1500","250","stim","","<div class = centerbox><div class = stroop-stim style = ""color:blue"">GREEN</div></div>","66,71,82","1500","test","true","66","500","incongruent","blue","green","","",""
"-1","-1","poldrack-single-stim","165","289940","0.0-165.0","191e0077-225d-4e82-b644-99e5e101afb6","","500","500","fixation","","<div class = centerbox><div class = fixation>+</div></div>","none","500","test","","","","","","","","",""
"599","66","poldrack-categorize","166","292453","0.0-166.0","191e0077-225d-4e82-b644-99e5e101afb6","","1500","250","stim","","<div class = centerbox><div class = stroop-stim style = ""color:blue"">BLUE</div></div>","66,71,82","1500","test","true","66","500","congruent","blue","blue","","",""
"-1","-1","poldrack-single-stim","167","293214","0.0-167.0","191e0077-225d-4e82-b644-99e5e101afb6","","500","500","fixation","","<div class = centerbox><div class = fixation>+</div></div>","none","500","test","","","","","","","","",""
"620","82","poldrack-categorize","168","295727","0.0-168.0","191e0077-225d-4e82-b644-99e5e101afb6","","1500","250","stim","","<div class = centerbox><div class = stroop-stim style = ""color:red"">RED</div></div>","66,71,82","1500","test","true","82","500","congruent","red","red","","",""
"-1","-1","poldrack-single-stim","169","296484","0.0-169.0","191e0077-225d-4e82-b644-99e5e101afb6","","500","500","fixation","","<div class = centerbox><div class = fixation>+</div></div>","none","500","test","","","","","","","","",""
"751","71","poldrack-categorize","170","298995","0.0-170.0","191e0077-225d-4e82-b644-99e5e101afb6","","1500","250","stim","","<div class = centerbox><div class = stroop-stim style = ""color:green"">GREEN</div></div>","66,71,82","1500","test","true","71","500","congruent","green","green","","",""
"-1","-1","poldrack-single-stim","171","299755","0.0-171.0","191e0077-225d-4e82-b644-99e5e101afb6","","500","500","fixation","","<div class = centerbox><div class = fixation>+</div></div>","none","500","test","","","","","","","","",""
"519","82","poldrack-categorize","172","302263","0.0-172.0","191e0077-225d-4e82-b644-99e5e101afb6","","1500","250","stim","","<div class = centerbox><div class = stroop-stim style = ""color:red"">GREEN</div></div>","66,71,82","1500","test","true","82","500","incongruent","red","green","","",""
"-1","-1","poldrack-single-stim","173","303023","0.0-173.0","191e0077-225d-4e82-b644-99e5e101afb6","","500","500","fixation","","<div class = centerbox><div class = fixation>+</div></div>","none","500","test","","","","","","","","",""
"489","82","poldrack-categorize","174","305537","0.0-174.0","191e0077-225d-4e82-b644-99e5e101afb6","","1500","250","stim","","<div class = centerbox><div class = stroop-stim style = ""color:red"">GREEN</div></div>","66,71,82","1500","test","true","82","500","incongruent","red","green","","",""
"-1","-1","poldrack-single-stim","175","306297","0.0-175.0","191e0077-225d-4e82-b644-99e5e101afb6","","500","500","fixation","","<div class = centerbox><div class = fixation>+</div></div>","none","500","test","","","","","","","","",""
"865","66","poldrack-categorize","176","308811","0.0-176.0","191e0077-225d-4e82-b644-99e5e101afb6","","1500","250","stim","","<div class = centerbox><div class = stroop-stim style = ""color:blue"">RED</div></div>","66,71,82","1500","test","true","66","500","incongruent","blue","red","","",""
"-1","-1","poldrack-single-stim","177","309571","0.0-177.0","191e0077-225d-4e82-b644-99e5e101afb6","","500","500","fixation","","<div class = centerbox><div class = fixation>+</div></div>","none","500","test","","","","","","","","",""
"606","66","poldrack-categorize","178","312084","0.0-178.0","191e0077-225d-4e82-b644-99e5e101afb6","","1500","250","stim","","<div class = centerbox><div class = stroop-stim style = ""color:blue"">RED</div></div>","66,71,82","1500","test","true","66","500","incongruent","blue","red","","",""
"-1","-1","poldrack-single-stim","179","312845","0.0-179.0","191e0077-225d-4e82-b644-99e5e101afb6","","500","500","fixation","","<div class = centerbox><div class = fixation>+</div></div>","none","500","test","","","","","","","","",""
"660","71","poldrack-categorize","180","315358","0.0-180.0","191e0077-225d-4e82-b644-99e5e101afb6","","1500","250","stim","","<div class = centerbox><div class = stroop-stim style = ""color:green"">GREEN</div></div>","66,71,82","1500","test","true","71","500","congruent","green","green","","",""
"-1","-1","poldrack-single-stim","181","316119","0.0-181.0","191e0077-225d-4e82-b644-99e5e101afb6","","500","500","fixation","","<div class = centerbox><div class = fixation>+</div></div>","none","500","test","","","","","","","","",""
"522","71","poldrack-categorize","182","318632","0.0-182.0","191e0077-225d-4e82-b644-99e5e101afb6","","1500","250","stim","","<div class = centerbox><div class = stroop-stim style = ""color:green"">GREEN</div></div>","66,71,82","1500","test","true","71","500","congruent","green","green","","",""
"-1","-1","poldrack-single-stim","183","319387","0.0-183.0","191e0077-225d-4e82-b644-99e5e101afb6","","500","500","fixation","","<div class = centerbox><div class = fixation>+</div></div>","none","500","test","","","","","","","","",""
"1053","82","poldrack-categorize","184","321900","0.0-184.0","191e0077-225d-4e82-b644-99e5e101afb6","","1500","250","stim","","<div class = centerbox><div class = stroop-stim style = ""color:red"">RED</div></div>","66,71,82","1500","test","true","82","500","congruent","red","red","","",""
"-1","-1","poldrack-single-stim","185","322660","0.0-185.0","191e0077-225d-4e82-b644-99e5e101afb6","","500","500","fixation","","<div class = centerbox><div class = fixation>+</div></div>","none","500","test","","","","","","","","",""
"541","82","poldrack-categorize","186","325174","0.0-186.0","191e0077-225d-4e82-b644-99e5e101afb6","","1500","250","stim","","<div class = centerbox><div class = stroop-stim style = ""color:red"">BLUE</div></div>","66,71,82","1500","test","true","82","500","incongruent","red","blue","","",""
"-1","-1","poldrack-single-stim","187","325934","0.0-187.0","191e0077-225d-4e82-b644-99e5e101afb6","","500","500","fixation","","<div class = centerbox><div class = fixation>+</div></div>","none","500","test","","","","","","","","",""
"513","66","poldrack-categorize","188","328447","0.0-188.0","191e0077-225d-4e82-b644-99e5e101afb6","","1500","250","stim","","<div class = centerbox><div class = stroop-stim style = ""color:blue"">BLUE</div></div>","66,71,82","1500","test","true","66","500","congruent","blue","blue","","",""
"-1","-1","poldrack-single-stim","189","329205","0.0-189.0","191e0077-225d-4e82-b644-99e5e101afb6","","500","500","fixation","","<div class = centerbox><div class = fixation>+</div></div>","none","500","test","","","","","","","","",""
"892","71","poldrack-categorize","190","331715","0.0-190.0","191e0077-225d-4e82-b644-99e5e101afb6","","1500","250","stim","","<div class = centerbox><div class = stroop-stim style = ""color:green"">GREEN</div></div>","66,71,82","1500","test","true","71","500","congruent","green","green","","",""
"-1","-1","poldrack-single-stim","191","332476","0.0-191.0","191e0077-225d-4e82-b644-99e5e101afb6","","500","500","fixation","","<div class = centerbox><div class = fixation>+</div></div>","none","500","test","","","","","","","","",""
"756","82","poldrack-categorize","192","334989","0.0-192.0","191e0077-225d-4e82-b644-99e5e101afb6","","1500","250","stim","","<div class = centerbox><div class = stroop-stim style = ""color:red"">RED</div></div>","66,71,82","1500","test","true","82","500","congruent","red","red","","",""
"-1","-1","poldrack-single-stim","193","335750","0.0-193.0","191e0077-225d-4e82-b644-99e5e101afb6","","500","500","fixation","","<div class = centerbox><div class = fixation>+</div></div>","none","500","test","","","","","","","","",""
"618","66","poldrack-categorize","194","338265","0.0-194.0","191e0077-225d-4e82-b644-99e5e101afb6","","1500","250","stim","","<div class = centerbox><div class = stroop-stim style = ""color:blue"">GREEN</div></div>","66,71,82","1500","test","true","66","500","incongruent","blue","green","","",""
"-1","-1","poldrack-single-stim","195","339024","0.0-195.0","191e0077-225d-4e82-b644-99e5e101afb6","","500","500","fixation","","<div class = centerbox><div class = fixation>+</div></div>","none","500","test","","","","","","","","",""
"416","66","poldrack-categorize","196","341537","0.0-196.0","191e0077-225d-4e82-b644-99e5e101afb6","","1500","250","stim","","<div class = centerbox><div class = stroop-stim style = ""color:blue"">BLUE</div></div>","66,71,82","1500","test","true","66","500","congruent","blue","blue","","",""
"-1","-1","poldrack-single-stim","197","342298","0.0-197.0","191e0077-225d-4e82-b644-99e5e101afb6","","500","500","fixation","","<div class = centerbox><div class = fixation>+</div></div>","none","500","test","","","","","","","","",""
"710","71","poldrack-categorize","198","344809","0.0-198.0","191e0077-225d-4e82-b644-99e5e101afb6","","1500","250","stim","","<div class = centerbox><div class = stroop-stim style = ""color:green"">GREEN</div></div>","66,71,82","1500","test","true","71","500","congruent","green","green","","",""
"-1","-1","poldrack-single-stim","199","345565","0.0-199.0","191e0077-225d-4e82-b644-99e5e101afb6","","500","500","fixation","","<div class = centerbox><div class = fixation>+</div></div>","none","500","test","","","","","","","","",""
"568","82","poldrack-categorize","200","348073","0.0-200.0","191e0077-225d-4e82-b644-99e5e101afb6","","1500","250","stim","","<div class = centerbox><div class = stroop-stim style = ""color:red"">RED</div></div>","66,71,82","1500","test","true","82","500","congruent","red","red","","",""
"-1","-1","poldrack-single-stim","201","348834","0.0-201.0","191e0077-225d-4e82-b644-99e5e101afb6","","500","500","fixation","","<div class = centerbox><div class = fixation>+</div></div>","none","500","test","","","","","","","","",""
"1052","82","poldrack-categorize","202","351347","0.0-202.0","191e0077-225d-4e82-b644-99e5e101afb6","","1500","250","stim","","<div class = centerbox><div class = stroop-stim style = ""color:red"">BLUE</div></div>","66,71,82","1500","test","true","82","500","incongruent","red","blue","","",""
"-1","-1","poldrack-single-stim","203","352107","0.0-203.0","191e0077-225d-4e82-b644-99e5e101afb6","","500","500","fixation","","<div class = centerbox><div class = fixation>+</div></div>","none","500","test","","","","","","","","",""
"732","71","poldrack-categorize","204","354620","0.0-204.0","191e0077-225d-4e82-b644-99e5e101afb6","","1500","250","stim","","<div class = centerbox><div class = stroop-stim style = ""color:green"">GREEN</div></div>","66,71,82","1500","test","true","71","500","congruent","green","green","","",""
"-1","-1","poldrack-single-stim","205","355381","0.0-205.0","191e0077-225d-4e82-b644-99e5e101afb6","","500","500","fixation","","<div class = centerbox><div class = fixation>+</div></div>","none","500","test","","","","","","","","",""
"617","82","poldrack-categorize","206","357894","0.0-206.0","191e0077-225d-4e82-b644-99e5e101afb6","","1500","250","stim","","<div class = centerbox><div class = stroop-stim style = ""color:red"">RED</div></div>","66,71,82","1500","test","true","82","500","congruent","red","red","","",""
"-1","-1","poldrack-single-stim","207","358655","0.0-207.0","191e0077-225d-4e82-b644-99e5e101afb6","","500","500","fixation","","<div class = centerbox><div class = fixation>+</div></div>","none","500","test","","","","","","","","",""
"576","71","poldrack-categorize","208","361168","0.0-208.0","191e0077-225d-4e82-b644-99e5e101afb6","","1500","250","stim","","<div class = centerbox><div class = stroop-stim style = ""color:green"">GREEN</div></div>","66,71,82","1500","test","true","71","500","congruent","green","green","","",""
"-1","-1","poldrack-single-stim","209","361929","0.0-209.0","191e0077-225d-4e82-b644-99e5e101afb6","","500","500","fixation","","<div class = centerbox><div class = fixation>+</div></div>","none","500","test","","","","","","","","",""
"574","66","poldrack-categorize","210","364442","0.0-210.0","191e0077-225d-4e82-b644-99e5e101afb6","","1500","250","stim","","<div class = centerbox><div class = stroop-stim style = ""color:blue"">RED</div></div>","66,71,82","1500","test","true","66","500","incongruent","blue","red","","",""
"-1","-1","poldrack-single-stim","211","365202","0.0-211.0","191e0077-225d-4e82-b644-99e5e101afb6","","500","500","fixation","","<div class = centerbox><div class = fixation>+</div></div>","none","500","test","","","","","","","","",""
"420","66","poldrack-categorize","212","367716","0.0-212.0","191e0077-225d-4e82-b644-99e5e101afb6","","1500","250","stim","","<div class = centerbox><div class = stroop-stim style = ""color:blue"">RED</div></div>","66,71,82","1500","test","true","66","500","incongruent","blue","red","","",""
"-1","-1","poldrack-single-stim","213","368476","0.0-213.0","191e0077-225d-4e82-b644-99e5e101afb6","","500","500","fixation","","<div class = centerbox><div class = fixation>+</div></div>","none","500","test","","","","","","","","",""
"1034","71","poldrack-categorize","214","370989","0.0-214.0","191e0077-225d-4e82-b644-99e5e101afb6","","1500","250","stim","","<div class = centerbox><div class = stroop-stim style = ""color:green"">RED</div></div>","66,71,82","1500","test","true","71","500","incongruent","green","red","","",""
"-1","-1","poldrack-single-stim","215","371747","0.0-215.0","191e0077-225d-4e82-b644-99e5e101afb6","","500","500","fixation","","<div class = centerbox><div class = fixation>+</div></div>","none","500","test","","","","","","","","",""
"676","66","poldrack-categorize","216","374257","0.0-216.0","191e0077-225d-4e82-b644-99e5e101afb6","","1500","250","stim","","<div class = centerbox><div class = stroop-stim style = ""color:blue"">GREEN</div></div>","66,71,82","1500","test","true","66","500","incongruent","blue","green","","",""
"-1","-1","poldrack-single-stim","217","375018","0.0-217.0","191e0077-225d-4e82-b644-99e5e101afb6","","500","500","fixation","","<div class = centerbox><div class = fixation>+</div></div>","none","500","test","","","","","","","","",""
"441","82","poldrack-categorize","218","377525","0.0-218.0","191e0077-225d-4e82-b644-99e5e101afb6","","1500","250","stim","","<div class = centerbox><div class = stroop-stim style = ""color:red"">RED</div></div>","66,71,82","1500","test","true","82","500","congruent","red","red","","",""
"-1","-1","poldrack-single-stim","219","378286","0.0-219.0","191e0077-225d-4e82-b644-99e5e101afb6","","500","500","fixation","","<div class = centerbox><div class = fixation>+</div></div>","none","500","test","","","","","","","","",""
"525","66","poldrack-categorize","220","380799","0.0-220.0","191e0077-225d-4e82-b644-99e5e101afb6","","1500","250","stim","","<div class = centerbox><div class = stroop-stim style = ""color:blue"">BLUE</div></div>","66,71,82","1500","test","true","66","500","congruent","blue","blue","","",""
"-1","-1","poldrack-single-stim","221","381560","0.0-221.0","191e0077-225d-4e82-b644-99e5e101afb6","","500","500","fixation","","<div class = centerbox><div class = fixation>+</div></div>","none","500","test","","","","","","","","",""
"851","82","poldrack-categorize","222","384073","0.0-222.0","191e0077-225d-4e82-b644-99e5e101afb6","","1500","250","stim","","<div class = centerbox><div class = stroop-stim style = ""color:red"">BLUE</div></div>","66,71,82","1500","test","true","82","500","incongruent","red","blue","","",""
"-1","-1","poldrack-single-stim","223","384834","0.0-223.0","191e0077-225d-4e82-b644-99e5e101afb6","","500","500","fixation","","<div class = centerbox><div class = fixation>+</div></div>","none","500","test","","","","","","","","",""
"587","82","poldrack-categorize","224","387341","0.0-224.0","191e0077-225d-4e82-b644-99e5e101afb6","","1500","250","stim","","<div class = centerbox><div class = stroop-stim style = ""color:red"">BLUE</div></div>","66,71,82","1500","test","true","82","500","incongruent","red","blue","","",""
"-1","-1","poldrack-single-stim","225","388102","0.0-225.0","191e0077-225d-4e82-b644-99e5e101afb6","","500","500","fixation","","<div class = centerbox><div class = fixation>+</div></div>","none","500","test","","","","","","","","",""
"573","66","poldrack-categorize","226","390615","0.0-226.0","191e0077-225d-4e82-b644-99e5e101afb6","","1500","250","stim","","<div class = centerbox><div class = stroop-stim style = ""color:blue"">RED</div></div>","66,71,82","1500","test","true","66","500","incongruent","blue","red","","",""
"-1","-1","poldrack-single-stim","227","391372","0.0-227.0","191e0077-225d-4e82-b644-99e5e101afb6","","500","500","fixation","","<div class = centerbox><div class = fixation>+</div></div>","none","500","test","","","","","","","","",""
"473","66","poldrack-categorize","228","393883","0.0-228.0","191e0077-225d-4e82-b644-99e5e101afb6","","1500","250","stim","","<div class = centerbox><div class = stroop-stim style = ""color:blue"">BLUE</div></div>","66,71,82","1500","test","true","66","500","congruent","blue","blue","","",""
"-1","-1","poldrack-single-stim","229","394643","0.0-229.0","191e0077-225d-4e82-b644-99e5e101afb6","","500","500","fixation","","<div class = centerbox><div class = fixation>+</div></div>","none","500","test","","","","","","","","",""
"1111","71","poldrack-categorize","230","397157","0.0-230.0","191e0077-225d-4e82-b644-99e5e101afb6","","1500","250","stim","","<div class = centerbox><div class = stroop-stim style = ""color:green"">BLUE</div></div>","66,71,82","1500","test","true","71","500","incongruent","green","blue","","",""
"-1","-1","poldrack-single-stim","231","397917","0.0-231.0","191e0077-225d-4e82-b644-99e5e101afb6","","500","500","fixation","","<div class = centerbox><div class = fixation>+</div></div>","none","500","test","","","","","","","","",""
"559","71","poldrack-categorize","232","400430","0.0-232.0","191e0077-225d-4e82-b644-99e5e101afb6","","1500","250","stim","","<div class = centerbox><div class = stroop-stim style = ""color:green"">GREEN</div></div>","66,71,82","1500","test","true","71","500","congruent","green","green","","",""
"-1","-1","poldrack-single-stim","233","401189","0.0-233.0","191e0077-225d-4e82-b644-99e5e101afb6","","500","500","fixation","","<div class = centerbox><div class = fixation>+</div></div>","none","500","test","","","","","","","","",""
"357","71","poldrack-categorize","234","403704","0.0-234.0","191e0077-225d-4e82-b644-99e5e101afb6","","1500","250","stim","","<div class = centerbox><div class = stroop-stim style = ""color:green"">GREEN</div></div>","66,71,82","1500","test","true","71","500","congruent","green","green","","",""
"-1","-1","poldrack-single-stim","235","404465","0.0-235.0","191e0077-225d-4e82-b644-99e5e101afb6","","500","500","fixation","","<div class = centerbox><div class = fixation>+</div></div>","none","500","test","","","","","","","","",""
"474","66","poldrack-categorize","236","406978","0.0-236.0","191e0077-225d-4e82-b644-99e5e101afb6","","1500","250","stim","","<div class = centerbox><div class = stroop-stim style = ""color:blue"">BLUE</div></div>","66,71,82","1500","test","true","66","500","congruent","blue","blue","","",""
"-1","-1","poldrack-single-stim","237","407739","0.0-237.0","191e0077-225d-4e82-b644-99e5e101afb6","","500","500","fixation","","<div class = centerbox><div class = fixation>+</div></div>","none","500","test","","","","","","","","",""
"697","71","poldrack-categorize","238","410252","0.0-238.0","191e0077-225d-4e82-b644-99e5e101afb6","","1500","250","stim","","<div class = centerbox><div class = stroop-stim style = ""color:green"">GREEN</div></div>","66,71,82","1500","test","true","71","500","congruent","green","green","","",""
"-1","-1","poldrack-single-stim","239","411013","0.0-239.0","191e0077-225d-4e82-b644-99e5e101afb6","","500","500","fixation","","<div class = centerbox><div class = fixation>+</div></div>","none","500","test","","","","","","","","",""
"869","82","poldrack-categorize","240","413526","0.0-240.0","191e0077-225d-4e82-b644-99e5e101afb6","","1500","250","stim","","<div class = centerbox><div class = stroop-stim style = ""color:red"">BLUE</div></div>","66,71,82","1500","test","true","82","500","incongruent","red","blue","","",""
"-1","-1","poldrack-single-stim","241","414280","0.0-241.0","191e0077-225d-4e82-b644-99e5e101afb6","","500","500","fixation","","<div class = centerbox><div class = fixation>+</div></div>","none","500","test","","","","","","","","",""
"505","82","poldrack-categorize","242","416792","0.0-242.0","191e0077-225d-4e82-b644-99e5e101afb6","","1500","250","stim","","<div class = centerbox><div class = stroop-stim style = ""color:red"">RED</div></div>","66,71,82","1500","test","true","82","500","congruent","red","red","","",""
"-1","-1","poldrack-single-stim","243","417548","0.0-243.0","191e0077-225d-4e82-b644-99e5e101afb6","","500","500","fixation","","<div class = centerbox><div class = fixation>+</div></div>","none","500","test","","","","","","","","",""
"652","66","poldrack-categorize","244","420062","0.0-244.0","191e0077-225d-4e82-b644-99e5e101afb6","","1500","250","stim","","<div class = centerbox><div class = stroop-stim style = ""color:green"">RED</div></div>","66,71,82","1500","test","false","71","500","incongruent","green","red","","",""
"43656","","survey-text","245","463986","0.0-246.0","191e0077-225d-4e82-b644-99e5e101afb6","","","","post task questions","","","","","","","","","","","","{""Q0"":""I was supposed to push the letter according to the ink of the word instead of the color that the word was spelling."",""Q1"":""""}","",""
"93162","13","poldrack-text","246","558153","0.0-247.0","191e0077-225d-4e82-b644-99e5e101afb6","<div class = centerbox><p class = center-block-text>Thanks for completing this task!</p><p class = center-block-text>Press <strong>enter</strong> to continue.</p></div>","93162","0","end","","","","","","","","","","","","","stroop","true"
"1627","13","text","247","559817","0.0-248.0","191e0077-225d-4e82-b644-99e5e101afb6","","","","","","","","","","","","","","","","","",""
