rt,key_press,trial_type,trial_index,time_elapsed,internal_node_id,subject,text,block_duration,timing_post_trial,trial_id,view_history,stimulus,possible_responses,stim_duration,exp_stage,stim_place,stim_id,condition,correct,correct_response,responses,exp_id,feedback_duration,stim_color,stim_word,credit_var8945,13,text,0,8948,0.0-0.0,72b54e98-25a8-44ed-9509-6e891da9e4b5,,,,,,,,,,,,,,,,,,,,3127,13,poldrack-text,389,510901,0.0-388.0-0.0,72b54e98-25a8-44ed-9509-6e891da9e4b5,<div class = centerbox><p class = center-block-text>Done with instructions. Press <strong>enter</strong> to continue.</p></div>,3127,0,instruction,,,,,,,,,,,,,,,,21660,,poldrack-instructions,390,532561,0.0-388.0-1.0,72b54e98-25a8-44ed-9509-6e891da9e4b5,,,,instruction,"[{""page_index"":0,""viewing_time"":21659}]",,,,,,,,,,,,,,,3553,13,poldrack-text,391,537123,0.0-389.0,72b54e98-25a8-44ed-9509-6e891da9e4b5,"<div class = centerbox><p class = block-text>We will start with a few practice trials. Remember, press the key corresponding to the <strong>ink</strong> color of the word: ""r"" for words colored red, ""b"" for words colored blue, and ""g"" for words colored green.</p><p class = block-text>Press <strong>enter</strong> to begin practice.</p></div>",3553,1000,practice_intro,,,,,,,,,,,,,,,,-1,-1,poldrack-single-stim,392,538633,0.0-390.0,72b54e98-25a8-44ed-9509-6e891da9e4b5,,500,500,fixation,,<div class = centerbox><div class = fixation>+</div></div>,none,500,practice,,,,,,,,,,,843,82,poldrack-categorize,393,541140,0.0-391.0,72b54e98-25a8-44ed-9509-6e891da9e4b5,,1500,250,stim,,"<div class = centerbox><div class = stroop-stim style = ""color:red"">RED</div></div>","66,71,82",1500,practice,,,congruent,TRUE,82,,,500,red,red,-1,-1,poldrack-single-stim,394,541901,0.0-392.0,72b54e98-25a8-44ed-9509-6e891da9e4b5,,500,500,fixation,,<div class = centerbox><div class = fixation>+</div></div>,none,500,practice,,,,,,,,,,,-1,-1,poldrack-categorize,395,544414,0.0-393.0,72b54e98-25a8-44ed-9509-6e891da9e4b5,,1500,250,stim,,"<div class = centerbox><div class = stroop-stim style = ""color:red"">BLUE</div></div>","66,71,82",1500,practice,,,incongruent,FALSE,82,,,500,red,blue,-1,-1,poldrack-single-stim,396,545174,0.0-394.0,72b54e98-25a8-44ed-9509-6e891da9e4b5,,500,500,fixation,,<div class = centerbox><div class = fixation>+</div></div>,none,500,practice,,,,,,,,,,,844,71,poldrack-categorize,397,547682,0.0-395.0,72b54e98-25a8-44ed-9509-6e891da9e4b5,,1500,250,stim,,"<div class = centerbox><div class = stroop-stim style = ""color:green"">BLUE</div></div>","66,71,82",1500,practice,,,incongruent,TRUE,71,,,500,green,blue,-1,-1,poldrack-single-stim,398,548443,0.0-396.0,72b54e98-25a8-44ed-9509-6e891da9e4b5,,500,500,fixation,,<div class = centerbox><div class = fixation>+</div></div>,none,500,practice,,,,,,,,,,,846,66,poldrack-categorize,399,550956,0.0-397.0,72b54e98-25a8-44ed-9509-6e891da9e4b5,,1500,250,stim,,"<div class = centerbox><div class = stroop-stim style = ""color:blue"">RED</div></div>","66,71,82",1500,practice,,,incongruent,TRUE,66,,,500,blue,red,-1,-1,poldrack-single-stim,400,551716,0.0-398.0,72b54e98-25a8-44ed-9509-6e891da9e4b5,,500,500,fixation,,<div class = centerbox><div class = fixation>+</div></div>,none,500,practice,,,,,,,,,,,484,82,poldrack-categorize,401,554229,0.0-399.0,72b54e98-25a8-44ed-9509-6e891da9e4b5,,1500,250,stim,,"<div class = centerbox><div class = stroop-stim style = ""color:red"">RED</div></div>","66,71,82",1500,practice,,,congruent,TRUE,82,,,500,red,red,-1,-1,poldrack-single-stim,402,554990,0.0-400.0,72b54e98-25a8-44ed-9509-6e891da9e4b5,,500,500,fixation,,<div class = centerbox><div class = fixation>+</div></div>,none,500,practice,,,,,,,,,,,806,71,poldrack-categorize,403,557498,0.0-401.0,72b54e98-25a8-44ed-9509-6e891da9e4b5,,1500,250,stim,,"<div class = centerbox><div class = stroop-stim style = ""color:green"">BLUE</div></div>","66,71,82",1500,practice,,,incongruent,TRUE,71,,,500,green,blue,-1,-1,poldrack-single-stim,404,558258,0.0-402.0,72b54e98-25a8-44ed-9509-6e891da9e4b5,,500,500,fixation,,<div class = centerbox><div class = fixation>+</div></div>,none,500,practice,,,,,,,,,,,566,66,poldrack-categorize,405,560771,0.0-403.0,72b54e98-25a8-44ed-9509-6e891da9e4b5,,1500,250,stim,,"<div class = centerbox><div class = stroop-stim style = ""color:blue"">BLUE</div></div>","66,71,82",1500,practice,,,congruent,TRUE,66,,,500,blue,blue,-1,-1,poldrack-single-stim,406,561526,0.0-404.0,72b54e98-25a8-44ed-9509-6e891da9e4b5,,500,500,fixation,,<div class = centerbox><div class = fixation>+</div></div>,none,500,practice,,,,,,,,,,,793,82,poldrack-categorize,407,564039,0.0-405.0,72b54e98-25a8-44ed-9509-6e891da9e4b5,,1500,250,stim,,"<div class = centerbox><div class = stroop-stim style = ""color:red"">BLUE</div></div>","66,71,82",1500,practice,,,incongruent,TRUE,82,,,500,red,blue,-1,-1,poldrack-single-stim,408,564799,0.0-406.0,72b54e98-25a8-44ed-9509-6e891da9e4b5,,500,500,fixation,,<div class = centerbox><div class = fixation>+</div></div>,none,500,practice,,,,,,,,,,,600,66,poldrack-categorize,409,567313,0.0-407.0,72b54e98-25a8-44ed-9509-6e891da9e4b5,,1500,250,stim,,"<div class = centerbox><div class = stroop-stim style = ""color:blue"">BLUE</div></div>","66,71,82",1500,practice,,,congruent,TRUE,66,,,500,blue,blue,-1,-1,poldrack-single-stim,410,568073,0.0-408.0,72b54e98-25a8-44ed-9509-6e891da9e4b5,,500,500,fixation,,<div class = centerbox><div class = fixation>+</div></div>,none,500,practice,,,,,,,,,,,702,66,poldrack-categorize,411,570587,0.0-409.0,72b54e98-25a8-44ed-9509-6e891da9e4b5,,1500,250,stim,,"<div class = centerbox><div class = stroop-stim style = ""color:blue"">BLUE</div></div>","66,71,82",1500,practice,,,congruent,TRUE,66,,,500,blue,blue,-1,-1,poldrack-single-stim,412,571341,0.0-410.0,72b54e98-25a8-44ed-9509-6e891da9e4b5,,500,500,fixation,,<div class = centerbox><div class = fixation>+</div></div>,none,500,practice,,,,,,,,,,,689,82,poldrack-categorize,413,573854,0.0-411.0,72b54e98-25a8-44ed-9509-6e891da9e4b5,,1500,250,stim,,"<div class = centerbox><div class = stroop-stim style = ""color:red"">RED</div></div>","66,71,82",1500,practice,,,congruent,TRUE,82,,,500,red,red,-1,-1,poldrack-single-stim,414,574615,0.0-412.0,72b54e98-25a8-44ed-9509-6e891da9e4b5,,500,500,fixation,,<div class = centerbox><div class = fixation>+</div></div>,none,500,practice,,,,,,,,,,,-1,-1,poldrack-categorize,415,577127,0.0-413.0,72b54e98-25a8-44ed-9509-6e891da9e4b5,,1500,250,stim,,"<div class = centerbox><div class = stroop-stim style = ""color:red"">GREEN</div></div>","66,71,82",1500,practice,,,incongruent,FALSE,82,,,500,red,green,-1,-1,poldrack-single-stim,416,577881,0.0-414.0,72b54e98-25a8-44ed-9509-6e891da9e4b5,,500,500,fixation,,<div class = centerbox><div class = fixation>+</div></div>,none,500,practice,,,,,,,,,,,1241,71,poldrack-categorize,417,580390,0.0-415.0,72b54e98-25a8-44ed-9509-6e891da9e4b5,,1500,250,stim,,"<div class = centerbox><div class = stroop-stim style = ""color:green"">RED</div></div>","66,71,82",1500,practice,,,incongruent,TRUE,71,,,500,green,red,-1,-1,poldrack-single-stim,418,581151,0.0-416.0,72b54e98-25a8-44ed-9509-6e891da9e4b5,,500,500,fixation,,<div class = centerbox><div class = fixation>+</div></div>,none,500,practice,,,,,,,,,,,-1,-1,poldrack-categorize,419,583664,0.0-417.0,72b54e98-25a8-44ed-9509-6e891da9e4b5,,1500,250,stim,,"<div class = centerbox><div class = stroop-stim style = ""color:red"">RED</div></div>","66,71,82",1500,practice,,,congruent,FALSE,82,,,500,red,red,-1,-1,poldrack-single-stim,420,584425,0.0-418.0,72b54e98-25a8-44ed-9509-6e891da9e4b5,,500,500,fixation,,<div class = centerbox><div class = fixation>+</div></div>,none,500,practice,,,,,,,,,,,519,66,poldrack-categorize,421,586938,0.0-419.0,72b54e98-25a8-44ed-9509-6e891da9e4b5,,1500,250,stim,,"<div class = centerbox><div class = stroop-stim style = ""color:blue"">BLUE</div></div>","66,71,82",1500,practice,,,congruent,TRUE,66,,,500,blue,blue,-1,-1,poldrack-single-stim,422,587698,0.0-420.0,72b54e98-25a8-44ed-9509-6e891da9e4b5,,500,500,fixation,,<div class = centerbox><div class = fixation>+</div></div>,none,500,practice,,,,,,,,,,,747,66,poldrack-categorize,423,590212,0.0-421.0,72b54e98-25a8-44ed-9509-6e891da9e4b5,,1500,250,stim,,"<div class = centerbox><div class = stroop-stim style = ""color:blue"">RED</div></div>","66,71,82",1500,practice,,,incongruent,TRUE,66,,,500,blue,red,-1,-1,poldrack-single-stim,424,590972,0.0-422.0,72b54e98-25a8-44ed-9509-6e891da9e4b5,,500,500,fixation,,<div class = centerbox><div class = fixation>+</div></div>,none,500,practice,,,,,,,,,,,673,71,poldrack-categorize,425,593485,0.0-423.0,72b54e98-25a8-44ed-9509-6e891da9e4b5,,1500,250,stim,,"<div class = centerbox><div class = stroop-stim style = ""color:green"">GREEN</div></div>","66,71,82",1500,practice,,,congruent,TRUE,71,,,500,green,green,-1,-1,poldrack-single-stim,426,594246,0.0-424.0,72b54e98-25a8-44ed-9509-6e891da9e4b5,,500,500,fixation,,<div class = centerbox><div class = fixation>+</div></div>,none,500,practice,,,,,,,,,,,567,66,poldrack-categorize,427,596759,0.0-425.0,72b54e98-25a8-44ed-9509-6e891da9e4b5,,1500,250,stim,,"<div class = centerbox><div class = stroop-stim style = ""color:blue"">GREEN</div></div>","66,71,82",1500,practice,,,incongruent,TRUE,66,,,500,blue,green,-1,-1,poldrack-single-stim,428,597519,0.0-426.0,72b54e98-25a8-44ed-9509-6e891da9e4b5,,500,500,fixation,,<div class = centerbox><div class = fixation>+</div></div>,none,500,practice,,,,,,,,,,,1101,71,poldrack-categorize,429,600033,0.0-427.0,72b54e98-25a8-44ed-9509-6e891da9e4b5,,1500,250,stim,,"<div class = centerbox><div class = stroop-stim style = ""color:green"">GREEN</div></div>","66,71,82",1500,practice,,,congruent,TRUE,71,,,500,green,green,-1,-1,poldrack-single-stim,430,600793,0.0-428.0,72b54e98-25a8-44ed-9509-6e891da9e4b5,,500,500,fixation,,<div class = centerbox><div class = fixation>+</div></div>,none,500,practice,,,,,,,,,,,603,82,poldrack-categorize,431,603306,0.0-429.0,72b54e98-25a8-44ed-9509-6e891da9e4b5,,1500,250,stim,,"<div class = centerbox><div class = stroop-stim style = ""color:red"">GREEN</div></div>","66,71,82",1500,practice,,,incongruent,TRUE,82,,,500,red,green,-1,-1,poldrack-single-stim,432,604067,0.0-430.0,72b54e98-25a8-44ed-9509-6e891da9e4b5,,500,500,fixation,,<div class = centerbox><div class = fixation>+</div></div>,none,500,practice,,,,,,,,,,,-1,-1,poldrack-categorize,433,606580,0.0-431.0,72b54e98-25a8-44ed-9509-6e891da9e4b5,,1500,250,stim,,"<div class = centerbox><div class = stroop-stim style = ""color:green"">GREEN</div></div>","66,71,82",1500,practice,,,congruent,FALSE,71,,,500,green,green,-1,-1,poldrack-single-stim,434,607341,0.0-432.0,72b54e98-25a8-44ed-9509-6e891da9e4b5,,500,500,fixation,,<div class = centerbox><div class = fixation>+</div></div>,none,500,practice,,,,,,,,,,,559,71,poldrack-categorize,435,609854,0.0-433.0,72b54e98-25a8-44ed-9509-6e891da9e4b5,,1500,250,stim,,"<div class = centerbox><div class = stroop-stim style = ""color:green"">GREEN</div></div>","66,71,82",1500,practice,,,congruent,TRUE,71,,,500,green,green,-1,-1,poldrack-single-stim,436,610614,0.0-434.0,72b54e98-25a8-44ed-9509-6e891da9e4b5,,500,500,fixation,,<div class = centerbox><div class = fixation>+</div></div>,none,500,practice,,,,,,,,,,,741,71,poldrack-categorize,437,613128,0.0-435.0,72b54e98-25a8-44ed-9509-6e891da9e4b5,,1500,250,stim,,"<div class = centerbox><div class = stroop-stim style = ""color:green"">RED</div></div>","66,71,82",1500,practice,,,incongruent,TRUE,71,,,500,green,red,-1,-1,poldrack-single-stim,438,613888,0.0-436.0,72b54e98-25a8-44ed-9509-6e891da9e4b5,,500,500,fixation,,<div class = centerbox><div class = fixation>+</div></div>,none,500,practice,,,,,,,,,,,667,66,poldrack-categorize,439,616401,0.0-437.0,72b54e98-25a8-44ed-9509-6e891da9e4b5,,1500,250,stim,,"<div class = centerbox><div class = stroop-stim style = ""color:blue"">GREEN</div></div>","66,71,82",1500,practice,,,incongruent,TRUE,66,,,500,blue,green,1547,13,poldrack-text,440,618204,0.0-439.0,72b54e98-25a8-44ed-9509-6e891da9e4b5,<div class = centerbox><p class = center-block-text>We will now start the test. Respond exactly like you did during practice.</p><p class = center-block-text>Press <strong>enter</strong> to begin the test.</p></div>,1547,1000,test_intro,,,,,,,,,,,,,,,,-1,-1,poldrack-single-stim,441,619710,0.0-440.0,72b54e98-25a8-44ed-9509-6e891da9e4b5,,500,500,fixation,,<div class = centerbox><div class = fixation>+</div></div>,none,500,test,,,,,,,,,,,720,66,poldrack-categorize,442,622218,0.0-441.0,72b54e98-25a8-44ed-9509-6e891da9e4b5,,1500,250,stim,,"<div class = centerbox><div class = stroop-stim style = ""color:blue"">BLUE</div></div>","66,71,82",1500,test,,,congruent,TRUE,66,,,500,blue,blue,-1,-1,poldrack-single-stim,443,622976,0.0-442.0,72b54e98-25a8-44ed-9509-6e891da9e4b5,,500,500,fixation,,<div class = centerbox><div class = fixation>+</div></div>,none,500,test,,,,,,,,,,,478,66,poldrack-categorize,444,625485,0.0-443.0,72b54e98-25a8-44ed-9509-6e891da9e4b5,,1500,250,stim,,"<div class = centerbox><div class = stroop-stim style = ""color:blue"">BLUE</div></div>","66,71,82",1500,test,,,congruent,TRUE,66,,,500,blue,blue,-1,-1,poldrack-single-stim,445,626243,0.0-444.0,72b54e98-25a8-44ed-9509-6e891da9e4b5,,500,500,fixation,,<div class = centerbox><div class = fixation>+</div></div>,none,500,test,,,,,,,,,,,386,82,poldrack-categorize,446,628750,0.0-445.0,72b54e98-25a8-44ed-9509-6e891da9e4b5,,1500,250,stim,,"<div class = centerbox><div class = stroop-stim style = ""color:red"">RED</div></div>","66,71,82",1500,test,,,congruent,TRUE,82,,,500,red,red,-1,-1,poldrack-single-stim,447,629508,0.0-446.0,72b54e98-25a8-44ed-9509-6e891da9e4b5,,500,500,fixation,,<div class = centerbox><div class = fixation>+</div></div>,none,500,test,,,,,,,,,,,1352,82,poldrack-categorize,448,632019,0.0-447.0,72b54e98-25a8-44ed-9509-6e891da9e4b5,,1500,250,stim,,"<div class = centerbox><div class = stroop-stim style = ""color:red"">GREEN</div></div>","66,71,82",1500,test,,,incongruent,TRUE,82,,,500,red,green,-1,-1,poldrack-single-stim,449,632776,0.0-448.0,72b54e98-25a8-44ed-9509-6e891da9e4b5,,500,500,fixation,,<div class = centerbox><div class = fixation>+</div></div>,none,500,test,,,,,,,,,,,505,82,poldrack-categorize,450,635289,0.0-449.0,72b54e98-25a8-44ed-9509-6e891da9e4b5,,1500,250,stim,,"<div class = centerbox><div class = stroop-stim style = ""color:red"">RED</div></div>","66,71,82",1500,test,,,congruent,TRUE,82,,,500,red,red,-1,-1,poldrack-single-stim,451,636050,0.0-450.0,72b54e98-25a8-44ed-9509-6e891da9e4b5,,500,500,fixation,,<div class = centerbox><div class = fixation>+</div></div>,none,500,test,,,,,,,,,,,967,66,poldrack-categorize,452,638563,0.0-451.0,72b54e98-25a8-44ed-9509-6e891da9e4b5,,1500,250,stim,,"<div class = centerbox><div class = stroop-stim style = ""color:blue"">BLUE</div></div>","66,71,82",1500,test,,,congruent,TRUE,66,,,500,blue,blue,-1,-1,poldrack-single-stim,453,639324,0.0-452.0,72b54e98-25a8-44ed-9509-6e891da9e4b5,,500,500,fixation,,<div class = centerbox><div class = fixation>+</div></div>,none,500,test,,,,,,,,,,,951,71,poldrack-categorize,454,641837,0.0-453.0,72b54e98-25a8-44ed-9509-6e891da9e4b5,,1500,250,stim,,"<div class = centerbox><div class = stroop-stim style = ""color:green"">RED</div></div>","66,71,82",1500,test,,,incongruent,TRUE,71,,,500,green,red,-1,-1,poldrack-single-stim,455,642598,0.0-454.0,72b54e98-25a8-44ed-9509-6e891da9e4b5,,500,500,fixation,,<div class = centerbox><div class = fixation>+</div></div>,none,500,test,,,,,,,,,,,638,71,poldrack-categorize,456,645110,0.0-455.0,72b54e98-25a8-44ed-9509-6e891da9e4b5,,1500,250,stim,,"<div class = centerbox><div class = stroop-stim style = ""color:green"">GREEN</div></div>","66,71,82",1500,test,,,congruent,TRUE,71,,,500,green,green,-1,-1,poldrack-single-stim,457,645871,0.0-456.0,72b54e98-25a8-44ed-9509-6e891da9e4b5,,500,500,fixation,,<div class = centerbox><div class = fixation>+</div></div>,none,500,test,,,,,,,,,,,699,66,poldrack-categorize,458,648384,0.0-457.0,72b54e98-25a8-44ed-9509-6e891da9e4b5,,1500,250,stim,,"<div class = centerbox><div class = stroop-stim style = ""color:blue"">BLUE</div></div>","66,71,82",1500,test,,,congruent,TRUE,66,,,500,blue,blue,-1,-1,poldrack-single-stim,459,649145,0.0-458.0,72b54e98-25a8-44ed-9509-6e891da9e4b5,,500,500,fixation,,<div class = centerbox><div class = fixation>+</div></div>,none,500,test,,,,,,,,,,,465,82,poldrack-categorize,460,651658,0.0-459.0,72b54e98-25a8-44ed-9509-6e891da9e4b5,,1500,250,stim,,"<div class = centerbox><div class = stroop-stim style = ""color:red"">RED</div></div>","66,71,82",1500,test,,,congruent,TRUE,82,,,500,red,red,-1,-1,poldrack-single-stim,461,652418,0.0-460.0,72b54e98-25a8-44ed-9509-6e891da9e4b5,,500,500,fixation,,<div class = centerbox><div class = fixation>+</div></div>,none,500,test,,,,,,,,,,,846,71,poldrack-categorize,462,654932,0.0-461.0,72b54e98-25a8-44ed-9509-6e891da9e4b5,,1500,250,stim,,"<div class = centerbox><div class = stroop-stim style = ""color:green"">GREEN</div></div>","66,71,82",1500,test,,,congruent,TRUE,71,,,500,green,green,-1,-1,poldrack-single-stim,463,655686,0.0-462.0,72b54e98-25a8-44ed-9509-6e891da9e4b5,,500,500,fixation,,<div class = centerbox><div class = fixation>+</div></div>,none,500,test,,,,,,,,,,,579,82,poldrack-categorize,464,658200,0.0-463.0,72b54e98-25a8-44ed-9509-6e891da9e4b5,,1500,250,stim,,"<div class = centerbox><div class = stroop-stim style = ""color:red"">RED</div></div>","66,71,82",1500,test,,,congruent,TRUE,82,,,500,red,red,-1,-1,poldrack-single-stim,465,658954,0.0-464.0,72b54e98-25a8-44ed-9509-6e891da9e4b5,,500,500,fixation,,<div class = centerbox><div class = fixation>+</div></div>,none,500,test,,,,,,,,,,,637,66,poldrack-categorize,466,661468,0.0-465.0,72b54e98-25a8-44ed-9509-6e891da9e4b5,,1500,250,stim,,"<div class = centerbox><div class = stroop-stim style = ""color:blue"">BLUE</div></div>","66,71,82",1500,test,,,congruent,TRUE,66,,,500,blue,blue,-1,-1,poldrack-single-stim,467,662228,0.0-466.0,72b54e98-25a8-44ed-9509-6e891da9e4b5,,500,500,fixation,,<div class = centerbox><div class = fixation>+</div></div>,none,500,test,,,,,,,,,,,661,66,poldrack-categorize,468,664741,0.0-467.0,72b54e98-25a8-44ed-9509-6e891da9e4b5,,1500,250,stim,,"<div class = centerbox><div class = stroop-stim style = ""color:blue"">BLUE</div></div>","66,71,82",1500,test,,,congruent,TRUE,66,,,500,blue,blue,-1,-1,poldrack-single-stim,469,665504,0.0-468.0,72b54e98-25a8-44ed-9509-6e891da9e4b5,,500,500,fixation,,<div class = centerbox><div class = fixation>+</div></div>,none,500,test,,,,,,,,,,,602,71,poldrack-categorize,470,668015,0.0-469.0,72b54e98-25a8-44ed-9509-6e891da9e4b5,,1500,250,stim,,"<div class = centerbox><div class = stroop-stim style = ""color:green"">GREEN</div></div>","66,71,82",1500,test,,,congruent,TRUE,71,,,500,green,green,-1,-1,poldrack-single-stim,471,668775,0.0-470.0,72b54e98-25a8-44ed-9509-6e891da9e4b5,,500,500,fixation,,<div class = centerbox><div class = fixation>+</div></div>,none,500,test,,,,,,,,,,,984,71,poldrack-categorize,472,671289,0.0-471.0,72b54e98-25a8-44ed-9509-6e891da9e4b5,,1500,250,stim,,"<div class = centerbox><div class = stroop-stim style = ""color:green"">BLUE</div></div>","66,71,82",1500,test,,,incongruent,TRUE,71,,,500,green,blue,-1,-1,poldrack-single-stim,473,672049,0.0-472.0,72b54e98-25a8-44ed-9509-6e891da9e4b5,,500,500,fixation,,<div class = centerbox><div class = fixation>+</div></div>,none,500,test,,,,,,,,,,,855,66,poldrack-categorize,474,674562,0.0-473.0,72b54e98-25a8-44ed-9509-6e891da9e4b5,,1500,250,stim,,"<div class = centerbox><div class = stroop-stim style = ""color:blue"">RED</div></div>","66,71,82",1500,test,,,incongruent,TRUE,66,,,500,blue,red,-1,-1,poldrack-single-stim,475,675323,0.0-474.0,72b54e98-25a8-44ed-9509-6e891da9e4b5,,500,500,fixation,,<div class = centerbox><div class = fixation>+</div></div>,none,500,test,,,,,,,,,,,580,71,poldrack-categorize,476,677836,0.0-475.0,72b54e98-25a8-44ed-9509-6e891da9e4b5,,1500,250,stim,,"<div class = centerbox><div class = stroop-stim style = ""color:blue"">GREEN</div></div>","66,71,82",1500,test,,,incongruent,FALSE,66,,,500,blue,green,-1,-1,poldrack-single-stim,477,678597,0.0-476.0,72b54e98-25a8-44ed-9509-6e891da9e4b5,,500,500,fixation,,<div class = centerbox><div class = fixation>+</div></div>,none,500,test,,,,,,,,,,,1250,82,poldrack-categorize,478,681110,0.0-477.0,72b54e98-25a8-44ed-9509-6e891da9e4b5,,1500,250,stim,,"<div class = centerbox><div class = stroop-stim style = ""color:red"">RED</div></div>","66,71,82",1500,test,,,congruent,TRUE,82,,,500,red,red,-1,-1,poldrack-single-stim,479,681871,0.0-478.0,72b54e98-25a8-44ed-9509-6e891da9e4b5,,500,500,fixation,,<div class = centerbox><div class = fixation>+</div></div>,none,500,test,,,,,,,,,,,927,82,poldrack-categorize,480,684384,0.0-479.0,72b54e98-25a8-44ed-9509-6e891da9e4b5,,1500,250,stim,,"<div class = centerbox><div class = stroop-stim style = ""color:red"">GREEN</div></div>","66,71,82",1500,test,,,incongruent,TRUE,82,,,500,red,green,-1,-1,poldrack-single-stim,481,685144,0.0-480.0,72b54e98-25a8-44ed-9509-6e891da9e4b5,,500,500,fixation,,<div class = centerbox><div class = fixation>+</div></div>,none,500,test,,,,,,,,,,,662,66,poldrack-categorize,482,687657,0.0-481.0,72b54e98-25a8-44ed-9509-6e891da9e4b5,,1500,250,stim,,"<div class = centerbox><div class = stroop-stim style = ""color:blue"">BLUE</div></div>","66,71,82",1500,test,,,congruent,TRUE,66,,,500,blue,blue,-1,-1,poldrack-single-stim,483,688418,0.0-482.0,72b54e98-25a8-44ed-9509-6e891da9e4b5,,500,500,fixation,,<div class = centerbox><div class = fixation>+</div></div>,none,500,test,,,,,,,,,,,1035,82,poldrack-categorize,484,690931,0.0-483.0,72b54e98-25a8-44ed-9509-6e891da9e4b5,,1500,250,stim,,"<div class = centerbox><div class = stroop-stim style = ""color:red"">BLUE</div></div>","66,71,82",1500,test,,,incongruent,TRUE,82,,,500,red,blue,-1,-1,poldrack-single-stim,485,691691,0.0-484.0,72b54e98-25a8-44ed-9509-6e891da9e4b5,,500,500,fixation,,<div class = centerbox><div class = fixation>+</div></div>,none,500,test,,,,,,,,,,,674,71,poldrack-categorize,486,694203,0.0-485.0,72b54e98-25a8-44ed-9509-6e891da9e4b5,,1500,250,stim,,"<div class = centerbox><div class = stroop-stim style = ""color:green"">GREEN</div></div>","66,71,82",1500,test,,,congruent,TRUE,71,,,500,green,green,-1,-1,poldrack-single-stim,487,694960,0.0-486.0,72b54e98-25a8-44ed-9509-6e891da9e4b5,,500,500,fixation,,<div class = centerbox><div class = fixation>+</div></div>,none,500,test,,,,,,,,,,,917,71,poldrack-categorize,488,697473,0.0-487.0,72b54e98-25a8-44ed-9509-6e891da9e4b5,,1500,250,stim,,"<div class = centerbox><div class = stroop-stim style = ""color:green"">BLUE</div></div>","66,71,82",1500,test,,,incongruent,TRUE,71,,,500,green,blue,-1,-1,poldrack-single-stim,489,698233,0.0-488.0,72b54e98-25a8-44ed-9509-6e891da9e4b5,,500,500,fixation,,<div class = centerbox><div class = fixation>+</div></div>,none,500,test,,,,,,,,,,,748,66,poldrack-categorize,490,700747,0.0-489.0,72b54e98-25a8-44ed-9509-6e891da9e4b5,,1500,250,stim,,"<div class = centerbox><div class = stroop-stim style = ""color:blue"">GREEN</div></div>","66,71,82",1500,test,,,incongruent,TRUE,66,,,500,blue,green,-1,-1,poldrack-single-stim,491,701507,0.0-490.0,72b54e98-25a8-44ed-9509-6e891da9e4b5,,500,500,fixation,,<div class = centerbox><div class = fixation>+</div></div>,none,500,test,,,,,,,,,,,635,82,poldrack-categorize,492,704016,0.0-491.0,72b54e98-25a8-44ed-9509-6e891da9e4b5,,1500,250,stim,,"<div class = centerbox><div class = stroop-stim style = ""color:red"">GREEN</div></div>","66,71,82",1500,test,,,incongruent,TRUE,82,,,500,red,green,-1,-1,poldrack-single-stim,493,704775,0.0-492.0,72b54e98-25a8-44ed-9509-6e891da9e4b5,,500,500,fixation,,<div class = centerbox><div class = fixation>+</div></div>,none,500,test,,,,,,,,,,,685,66,poldrack-categorize,494,707288,0.0-493.0,72b54e98-25a8-44ed-9509-6e891da9e4b5,,1500,250,stim,,"<div class = centerbox><div class = stroop-stim style = ""color:blue"">GREEN</div></div>","66,71,82",1500,test,,,incongruent,TRUE,66,,,500,blue,green,-1,-1,poldrack-single-stim,495,708049,0.0-494.0,72b54e98-25a8-44ed-9509-6e891da9e4b5,,500,500,fixation,,<div class = centerbox><div class = fixation>+</div></div>,none,500,test,,,,,,,,,,,645,71,poldrack-categorize,496,710562,0.0-495.0,72b54e98-25a8-44ed-9509-6e891da9e4b5,,1500,250,stim,,"<div class = centerbox><div class = stroop-stim style = ""color:green"">RED</div></div>","66,71,82",1500,test,,,incongruent,TRUE,71,,,500,green,red,-1,-1,poldrack-single-stim,497,711322,0.0-496.0,72b54e98-25a8-44ed-9509-6e891da9e4b5,,500,500,fixation,,<div class = centerbox><div class = fixation>+</div></div>,none,500,test,,,,,,,,,,,802,66,poldrack-categorize,498,713836,0.0-497.0,72b54e98-25a8-44ed-9509-6e891da9e4b5,,1500,250,stim,,"<div class = centerbox><div class = stroop-stim style = ""color:blue"">BLUE</div></div>","66,71,82",1500,test,,,congruent,TRUE,66,,,500,blue,blue,-1,-1,poldrack-single-stim,499,714596,0.0-498.0,72b54e98-25a8-44ed-9509-6e891da9e4b5,,500,500,fixation,,<div class = centerbox><div class = fixation>+</div></div>,none,500,test,,,,,,,,,,,880,71,poldrack-categorize,500,717109,0.0-499.0,72b54e98-25a8-44ed-9509-6e891da9e4b5,,1500,250,stim,,"<div class = centerbox><div class = stroop-stim style = ""color:green"">GREEN</div></div>","66,71,82",1500,test,,,congruent,TRUE,71,,,500,green,green,-1,-1,poldrack-single-stim,501,717870,0.0-500.0,72b54e98-25a8-44ed-9509-6e891da9e4b5,,500,500,fixation,,<div class = centerbox><div class = fixation>+</div></div>,none,500,test,,,,,,,,,,,1271,66,poldrack-categorize,502,720379,0.0-501.0,72b54e98-25a8-44ed-9509-6e891da9e4b5,,1500,250,stim,,"<div class = centerbox><div class = stroop-stim style = ""color:blue"">RED</div></div>","66,71,82",1500,test,,,incongruent,TRUE,66,,,500,blue,red,-1,-1,poldrack-single-stim,503,721138,0.0-502.0,72b54e98-25a8-44ed-9509-6e891da9e4b5,,500,500,fixation,,<div class = centerbox><div class = fixation>+</div></div>,none,500,test,,,,,,,,,,,647,66,poldrack-categorize,504,723651,0.0-503.0,72b54e98-25a8-44ed-9509-6e891da9e4b5,,1500,250,stim,,"<div class = centerbox><div class = stroop-stim style = ""color:blue"">RED</div></div>","66,71,82",1500,test,,,incongruent,TRUE,66,,,500,blue,red,-1,-1,poldrack-single-stim,505,724412,0.0-504.0,72b54e98-25a8-44ed-9509-6e891da9e4b5,,500,500,fixation,,<div class = centerbox><div class = fixation>+</div></div>,none,500,test,,,,,,,,,,,664,71,poldrack-categorize,506,726925,0.0-505.0,72b54e98-25a8-44ed-9509-6e891da9e4b5,,1500,250,stim,,"<div class = centerbox><div class = stroop-stim style = ""color:green"">GREEN</div></div>","66,71,82",1500,test,,,congruent,TRUE,71,,,500,green,green,-1,-1,poldrack-single-stim,507,727685,0.0-506.0,72b54e98-25a8-44ed-9509-6e891da9e4b5,,500,500,fixation,,<div class = centerbox><div class = fixation>+</div></div>,none,500,test,,,,,,,,,,,589,66,poldrack-categorize,508,730199,0.0-507.0,72b54e98-25a8-44ed-9509-6e891da9e4b5,,1500,250,stim,,"<div class = centerbox><div class = stroop-stim style = ""color:blue"">BLUE</div></div>","66,71,82",1500,test,,,congruent,TRUE,66,,,500,blue,blue,-1,-1,poldrack-single-stim,509,730957,0.0-508.0,72b54e98-25a8-44ed-9509-6e891da9e4b5,,500,500,fixation,,<div class = centerbox><div class = fixation>+</div></div>,none,500,test,,,,,,,,,,,820,82,poldrack-categorize,510,733472,0.0-509.0,72b54e98-25a8-44ed-9509-6e891da9e4b5,,1500,250,stim,,"<div class = centerbox><div class = stroop-stim style = ""color:red"">GREEN</div></div>","66,71,82",1500,test,,,incongruent,TRUE,82,,,500,red,green,-1,-1,poldrack-single-stim,511,734233,0.0-510.0,72b54e98-25a8-44ed-9509-6e891da9e4b5,,500,500,fixation,,<div class = centerbox><div class = fixation>+</div></div>,none,500,test,,,,,,,,,,,841,71,poldrack-categorize,512,736746,0.0-511.0,72b54e98-25a8-44ed-9509-6e891da9e4b5,,1500,250,stim,,"<div class = centerbox><div class = stroop-stim style = ""color:green"">GREEN</div></div>","66,71,82",1500,test,,,congruent,TRUE,71,,,500,green,green,-1,-1,poldrack-single-stim,513,737507,0.0-512.0,72b54e98-25a8-44ed-9509-6e891da9e4b5,,500,500,fixation,,<div class = centerbox><div class = fixation>+</div></div>,none,500,test,,,,,,,,,,,592,82,poldrack-categorize,514,740020,0.0-513.0,72b54e98-25a8-44ed-9509-6e891da9e4b5,,1500,250,stim,,"<div class = centerbox><div class = stroop-stim style = ""color:red"">RED</div></div>","66,71,82",1500,test,,,congruent,TRUE,82,,,500,red,red,-1,-1,poldrack-single-stim,515,740780,0.0-514.0,72b54e98-25a8-44ed-9509-6e891da9e4b5,,500,500,fixation,,<div class = centerbox><div class = fixation>+</div></div>,none,500,test,,,,,,,,,,,662,71,poldrack-categorize,516,743294,0.0-515.0,72b54e98-25a8-44ed-9509-6e891da9e4b5,,1500,250,stim,,"<div class = centerbox><div class = stroop-stim style = ""color:green"">GREEN</div></div>","66,71,82",1500,test,,,congruent,TRUE,71,,,500,green,green,-1,-1,poldrack-single-stim,517,744054,0.0-516.0,72b54e98-25a8-44ed-9509-6e891da9e4b5,,500,500,fixation,,<div class = centerbox><div class = fixation>+</div></div>,none,500,test,,,,,,,,,,,675,66,poldrack-categorize,518,746568,0.0-517.0,72b54e98-25a8-44ed-9509-6e891da9e4b5,,1500,250,stim,,"<div class = centerbox><div class = stroop-stim style = ""color:green"">BLUE</div></div>","66,71,82",1500,test,,,incongruent,FALSE,71,,,500,green,blue,-1,-1,poldrack-single-stim,519,747328,0.0-518.0,72b54e98-25a8-44ed-9509-6e891da9e4b5,,500,500,fixation,,<div class = centerbox><div class = fixation>+</div></div>,none,500,test,,,,,,,,,,,809,66,poldrack-categorize,520,749841,0.0-519.0,72b54e98-25a8-44ed-9509-6e891da9e4b5,,1500,250,stim,,"<div class = centerbox><div class = stroop-stim style = ""color:blue"">BLUE</div></div>","66,71,82",1500,test,,,congruent,TRUE,66,,,500,blue,blue,-1,-1,poldrack-single-stim,521,750602,0.0-520.0,72b54e98-25a8-44ed-9509-6e891da9e4b5,,500,500,fixation,,<div class = centerbox><div class = fixation>+</div></div>,none,500,test,,,,,,,,,,,984,71,poldrack-categorize,522,753115,0.0-521.0,72b54e98-25a8-44ed-9509-6e891da9e4b5,,1500,250,stim,,"<div class = centerbox><div class = stroop-stim style = ""color:green"">BLUE</div></div>","66,71,82",1500,test,,,incongruent,TRUE,71,,,500,green,blue,-1,-1,poldrack-single-stim,523,753875,0.0-522.0,72b54e98-25a8-44ed-9509-6e891da9e4b5,,500,500,fixation,,<div class = centerbox><div class = fixation>+</div></div>,none,500,test,,,,,,,,,,,846,82,poldrack-categorize,524,756383,0.0-523.0,72b54e98-25a8-44ed-9509-6e891da9e4b5,,1500,250,stim,,"<div class = centerbox><div class = stroop-stim style = ""color:red"">BLUE</div></div>","66,71,82",1500,test,,,incongruent,TRUE,82,,,500,red,blue,-1,-1,poldrack-single-stim,525,757141,0.0-524.0,72b54e98-25a8-44ed-9509-6e891da9e4b5,,500,500,fixation,,<div class = centerbox><div class = fixation>+</div></div>,none,500,test,,,,,,,,,,,510,82,poldrack-categorize,526,759647,0.0-525.0,72b54e98-25a8-44ed-9509-6e891da9e4b5,,1500,250,stim,,"<div class = centerbox><div class = stroop-stim style = ""color:red"">RED</div></div>","66,71,82",1500,test,,,congruent,TRUE,82,,,500,red,red,-1,-1,poldrack-single-stim,527,760405,0.0-526.0,72b54e98-25a8-44ed-9509-6e891da9e4b5,,500,500,fixation,,<div class = centerbox><div class = fixation>+</div></div>,none,500,test,,,,,,,,,,,1001,82,poldrack-categorize,528,762919,0.0-527.0,72b54e98-25a8-44ed-9509-6e891da9e4b5,,1500,250,stim,,"<div class = centerbox><div class = stroop-stim style = ""color:red"">RED</div></div>","66,71,82",1500,test,,,congruent,TRUE,82,,,500,red,red,-1,-1,poldrack-single-stim,529,763679,0.0-528.0,72b54e98-25a8-44ed-9509-6e891da9e4b5,,500,500,fixation,,<div class = centerbox><div class = fixation>+</div></div>,none,500,test,,,,,,,,,,,1418,71,poldrack-categorize,530,766192,0.0-529.0,72b54e98-25a8-44ed-9509-6e891da9e4b5,,1500,250,stim,,"<div class = centerbox><div class = stroop-stim style = ""color:green"">RED</div></div>","66,71,82",1500,test,,,incongruent,TRUE,71,,,500,green,red,-1,-1,poldrack-single-stim,531,766953,0.0-530.0,72b54e98-25a8-44ed-9509-6e891da9e4b5,,500,500,fixation,,<div class = centerbox><div class = fixation>+</div></div>,none,500,test,,,,,,,,,,,823,82,poldrack-categorize,532,769466,0.0-531.0,72b54e98-25a8-44ed-9509-6e891da9e4b5,,1500,250,stim,,"<div class = centerbox><div class = stroop-stim style = ""color:red"">RED</div></div>","66,71,82",1500,test,,,congruent,TRUE,82,,,500,red,red,-1,-1,poldrack-single-stim,533,770227,0.0-532.0,72b54e98-25a8-44ed-9509-6e891da9e4b5,,500,500,fixation,,<div class = centerbox><div class = fixation>+</div></div>,none,500,test,,,,,,,,,,,1077,71,poldrack-categorize,534,772740,0.0-533.0,72b54e98-25a8-44ed-9509-6e891da9e4b5,,1500,250,stim,,"<div class = centerbox><div class = stroop-stim style = ""color:green"">RED</div></div>","66,71,82",1500,test,,,incongruent,TRUE,71,,,500,green,red,-1,-1,poldrack-single-stim,535,773500,0.0-534.0,72b54e98-25a8-44ed-9509-6e891da9e4b5,,500,500,fixation,,<div class = centerbox><div class = fixation>+</div></div>,none,500,test,,,,,,,,,,,842,66,poldrack-categorize,536,776013,0.0-535.0,72b54e98-25a8-44ed-9509-6e891da9e4b5,,1500,250,stim,,"<div class = centerbox><div class = stroop-stim style = ""color:blue"">BLUE</div></div>","66,71,82",1500,test,,,congruent,TRUE,66,,,500,blue,blue,-1,-1,poldrack-single-stim,537,776774,0.0-536.0,72b54e98-25a8-44ed-9509-6e891da9e4b5,,500,500,fixation,,<div class = centerbox><div class = fixation>+</div></div>,none,500,test,,,,,,,,,,,-1,-1,poldrack-categorize,538,779287,0.0-537.0,72b54e98-25a8-44ed-9509-6e891da9e4b5,,1500,250,stim,,"<div class = centerbox><div class = stroop-stim style = ""color:red"">BLUE</div></div>","66,71,82",1500,test,,,incongruent,FALSE,82,,,500,red,blue,-1,-1,poldrack-single-stim,539,780045,0.0-538.0,72b54e98-25a8-44ed-9509-6e891da9e4b5,,500,500,fixation,,<div class = centerbox><div class = fixation>+</div></div>,none,500,test,,,,,,,,,,,699,82,poldrack-categorize,540,782550,0.0-539.0,72b54e98-25a8-44ed-9509-6e891da9e4b5,,1500,250,stim,,"<div class = centerbox><div class = stroop-stim style = ""color:red"">BLUE</div></div>","66,71,82",1500,test,,,incongruent,TRUE,82,,,500,red,blue,-1,-1,poldrack-single-stim,541,783310,0.0-540.0,72b54e98-25a8-44ed-9509-6e891da9e4b5,,500,500,fixation,,<div class = centerbox><div class = fixation>+</div></div>,none,500,test,,,,,,,,,,,822,82,poldrack-categorize,542,785823,0.0-541.0,72b54e98-25a8-44ed-9509-6e891da9e4b5,,1500,250,stim,,"<div class = centerbox><div class = stroop-stim style = ""color:red"">RED</div></div>","66,71,82",1500,test,,,congruent,TRUE,82,,,500,red,red,-1,-1,poldrack-single-stim,543,786584,0.0-542.0,72b54e98-25a8-44ed-9509-6e891da9e4b5,,500,500,fixation,,<div class = centerbox><div class = fixation>+</div></div>,none,500,test,,,,,,,,,,,639,82,poldrack-categorize,544,789097,0.0-543.0,72b54e98-25a8-44ed-9509-6e891da9e4b5,,1500,250,stim,,"<div class = centerbox><div class = stroop-stim style = ""color:red"">BLUE</div></div>","66,71,82",1500,test,,,incongruent,TRUE,82,,,500,red,blue,-1,-1,poldrack-single-stim,545,789857,0.0-544.0,72b54e98-25a8-44ed-9509-6e891da9e4b5,,500,500,fixation,,<div class = centerbox><div class = fixation>+</div></div>,none,500,test,,,,,,,,,,,844,71,poldrack-categorize,546,792371,0.0-545.0,72b54e98-25a8-44ed-9509-6e891da9e4b5,,1500,250,stim,,"<div class = centerbox><div class = stroop-stim style = ""color:green"">RED</div></div>","66,71,82",1500,test,,,incongruent,TRUE,71,,,500,green,red,-1,-1,poldrack-single-stim,547,793131,0.0-546.0,72b54e98-25a8-44ed-9509-6e891da9e4b5,,500,500,fixation,,<div class = centerbox><div class = fixation>+</div></div>,none,500,test,,,,,,,,,,,1136,71,poldrack-categorize,548,795644,0.0-547.0,72b54e98-25a8-44ed-9509-6e891da9e4b5,,1500,250,stim,,"<div class = centerbox><div class = stroop-stim style = ""color:green"">BLUE</div></div>","66,71,82",1500,test,,,incongruent,TRUE,71,,,500,green,blue,-1,-1,poldrack-single-stim,549,796405,0.0-548.0,72b54e98-25a8-44ed-9509-6e891da9e4b5,,500,500,fixation,,<div class = centerbox><div class = fixation>+</div></div>,none,500,test,,,,,,,,,,,768,66,poldrack-categorize,550,798918,0.0-549.0,72b54e98-25a8-44ed-9509-6e891da9e4b5,,1500,250,stim,,"<div class = centerbox><div class = stroop-stim style = ""color:blue"">GREEN</div></div>","66,71,82",1500,test,,,incongruent,TRUE,66,,,500,blue,green,-1,-1,poldrack-single-stim,551,799679,0.0-550.0,72b54e98-25a8-44ed-9509-6e891da9e4b5,,500,500,fixation,,<div class = centerbox><div class = fixation>+</div></div>,none,500,test,,,,,,,,,,,1278,66,poldrack-categorize,552,802192,0.0-551.0,72b54e98-25a8-44ed-9509-6e891da9e4b5,,1500,250,stim,,"<div class = centerbox><div class = stroop-stim style = ""color:blue"">RED</div></div>","66,71,82",1500,test,,,incongruent,TRUE,66,,,500,blue,red,-1,-1,poldrack-single-stim,553,802952,0.0-552.0,72b54e98-25a8-44ed-9509-6e891da9e4b5,,500,500,fixation,,<div class = centerbox><div class = fixation>+</div></div>,none,500,test,,,,,,,,,,,-1,-1,poldrack-categorize,554,805466,0.0-553.0,72b54e98-25a8-44ed-9509-6e891da9e4b5,,1500,250,stim,,"<div class = centerbox><div class = stroop-stim style = ""color:red"">BLUE</div></div>","66,71,82",1500,test,,,incongruent,FALSE,82,,,500,red,blue,-1,-1,poldrack-single-stim,555,806226,0.0-554.0,72b54e98-25a8-44ed-9509-6e891da9e4b5,,500,500,fixation,,<div class = centerbox><div class = fixation>+</div></div>,none,500,test,,,,,,,,,,,808,66,poldrack-categorize,556,808739,0.0-555.0,72b54e98-25a8-44ed-9509-6e891da9e4b5,,1500,250,stim,,"<div class = centerbox><div class = stroop-stim style = ""color:blue"">BLUE</div></div>","66,71,82",1500,test,,,congruent,TRUE,66,,,500,blue,blue,-1,-1,poldrack-single-stim,557,809500,0.0-556.0,72b54e98-25a8-44ed-9509-6e891da9e4b5,,500,500,fixation,,<div class = centerbox><div class = fixation>+</div></div>,none,500,test,,,,,,,,,,,824,71,poldrack-categorize,558,812013,0.0-557.0,72b54e98-25a8-44ed-9509-6e891da9e4b5,,1500,250,stim,,"<div class = centerbox><div class = stroop-stim style = ""color:green"">RED</div></div>","66,71,82",1500,test,,,incongruent,TRUE,71,,,500,green,red,-1,-1,poldrack-single-stim,559,812774,0.0-558.0,72b54e98-25a8-44ed-9509-6e891da9e4b5,,500,500,fixation,,<div class = centerbox><div class = fixation>+</div></div>,none,500,test,,,,,,,,,,,941,66,poldrack-categorize,560,815287,0.0-559.0,72b54e98-25a8-44ed-9509-6e891da9e4b5,,1500,250,stim,,"<div class = centerbox><div class = stroop-stim style = ""color:blue"">RED</div></div>","66,71,82",1500,test,,,incongruent,TRUE,66,,,500,blue,red,-1,-1,poldrack-single-stim,561,816042,0.0-560.0,72b54e98-25a8-44ed-9509-6e891da9e4b5,,500,500,fixation,,<div class = centerbox><div class = fixation>+</div></div>,none,500,test,,,,,,,,,,,609,66,poldrack-categorize,562,818549,0.0-561.0,72b54e98-25a8-44ed-9509-6e891da9e4b5,,1500,250,stim,,"<div class = centerbox><div class = stroop-stim style = ""color:blue"">BLUE</div></div>","66,71,82",1500,test,,,congruent,TRUE,66,,,500,blue,blue,-1,-1,poldrack-single-stim,563,819309,0.0-562.0,72b54e98-25a8-44ed-9509-6e891da9e4b5,,500,500,fixation,,<div class = centerbox><div class = fixation>+</div></div>,none,500,test,,,,,,,,,,,645,71,poldrack-categorize,564,821823,0.0-563.0,72b54e98-25a8-44ed-9509-6e891da9e4b5,,1500,250,stim,,"<div class = centerbox><div class = stroop-stim style = ""color:green"">GREEN</div></div>","66,71,82",1500,test,,,congruent,TRUE,71,,,500,green,green,-1,-1,poldrack-single-stim,565,822581,0.0-564.0,72b54e98-25a8-44ed-9509-6e891da9e4b5,,500,500,fixation,,<div class = centerbox><div class = fixation>+</div></div>,none,500,test,,,,,,,,,,,732,66,poldrack-categorize,566,825096,0.0-565.0,72b54e98-25a8-44ed-9509-6e891da9e4b5,,1500,250,stim,,"<div class = centerbox><div class = stroop-stim style = ""color:blue"">GREEN</div></div>","66,71,82",1500,test,,,incongruent,TRUE,66,,,500,blue,green,-1,-1,poldrack-single-stim,567,825857,0.0-566.0,72b54e98-25a8-44ed-9509-6e891da9e4b5,,500,500,fixation,,<div class = centerbox><div class = fixation>+</div></div>,none,500,test,,,,,,,,,,,578,66,poldrack-categorize,568,828370,0.0-567.0,72b54e98-25a8-44ed-9509-6e891da9e4b5,,1500,250,stim,,"<div class = centerbox><div class = stroop-stim style = ""color:blue"">GREEN</div></div>","66,71,82",1500,test,,,incongruent,TRUE,66,,,500,blue,green,-1,-1,poldrack-single-stim,569,829131,0.0-568.0,72b54e98-25a8-44ed-9509-6e891da9e4b5,,500,500,fixation,,<div class = centerbox><div class = fixation>+</div></div>,none,500,test,,,,,,,,,,,656,82,poldrack-categorize,570,831644,0.0-569.0,72b54e98-25a8-44ed-9509-6e891da9e4b5,,1500,250,stim,,"<div class = centerbox><div class = stroop-stim style = ""color:red"">RED</div></div>","66,71,82",1500,test,,,congruent,TRUE,82,,,500,red,red,-1,-1,poldrack-single-stim,571,832404,0.0-570.0,72b54e98-25a8-44ed-9509-6e891da9e4b5,,500,500,fixation,,<div class = centerbox><div class = fixation>+</div></div>,none,500,test,,,,,,,,,,,1132,82,poldrack-categorize,572,834918,0.0-571.0,72b54e98-25a8-44ed-9509-6e891da9e4b5,,1500,250,stim,,"<div class = centerbox><div class = stroop-stim style = ""color:red"">BLUE</div></div>","66,71,82",1500,test,,,incongruent,TRUE,82,,,500,red,blue,-1,-1,poldrack-single-stim,573,835672,0.0-572.0,72b54e98-25a8-44ed-9509-6e891da9e4b5,,500,500,fixation,,<div class = centerbox><div class = fixation>+</div></div>,none,500,test,,,,,,,,,,,491,71,poldrack-categorize,574,838180,0.0-573.0,72b54e98-25a8-44ed-9509-6e891da9e4b5,,1500,250,stim,,"<div class = centerbox><div class = stroop-stim style = ""color:green"">GREEN</div></div>","66,71,82",1500,test,,,congruent,TRUE,71,,,500,green,green,-1,-1,poldrack-single-stim,575,838940,0.0-574.0,72b54e98-25a8-44ed-9509-6e891da9e4b5,,500,500,fixation,,<div class = centerbox><div class = fixation>+</div></div>,none,500,test,,,,,,,,,,,814,71,poldrack-categorize,576,841453,0.0-575.0,72b54e98-25a8-44ed-9509-6e891da9e4b5,,1500,250,stim,,"<div class = centerbox><div class = stroop-stim style = ""color:green"">BLUE</div></div>","66,71,82",1500,test,,,incongruent,TRUE,71,,,500,green,blue,-1,-1,poldrack-single-stim,577,842214,0.0-576.0,72b54e98-25a8-44ed-9509-6e891da9e4b5,,500,500,fixation,,<div class = centerbox><div class = fixation>+</div></div>,none,500,test,,,,,,,,,,,858,71,poldrack-categorize,578,844727,0.0-577.0,72b54e98-25a8-44ed-9509-6e891da9e4b5,,1500,250,stim,,"<div class = centerbox><div class = stroop-stim style = ""color:green"">BLUE</div></div>","66,71,82",1500,test,,,incongruent,TRUE,71,,,500,green,blue,-1,-1,poldrack-single-stim,579,845488,0.0-578.0,72b54e98-25a8-44ed-9509-6e891da9e4b5,,500,500,fixation,,<div class = centerbox><div class = fixation>+</div></div>,none,500,test,,,,,,,,,,,1178,82,poldrack-categorize,580,847997,0.0-579.0,72b54e98-25a8-44ed-9509-6e891da9e4b5,,1500,250,stim,,"<div class = centerbox><div class = stroop-stim style = ""color:red"">GREEN</div></div>","66,71,82",1500,test,,,incongruent,TRUE,82,,,500,red,green,-1,-1,poldrack-single-stim,581,848756,0.0-580.0,72b54e98-25a8-44ed-9509-6e891da9e4b5,,500,500,fixation,,<div class = centerbox><div class = fixation>+</div></div>,none,500,test,,,,,,,,,,,1196,66,poldrack-categorize,582,851269,0.0-581.0,72b54e98-25a8-44ed-9509-6e891da9e4b5,,1500,250,stim,,"<div class = centerbox><div class = stroop-stim style = ""color:blue"">GREEN</div></div>","66,71,82",1500,test,,,incongruent,TRUE,66,,,500,blue,green,-1,-1,poldrack-single-stim,583,852030,0.0-582.0,72b54e98-25a8-44ed-9509-6e891da9e4b5,,500,500,fixation,,<div class = centerbox><div class = fixation>+</div></div>,none,500,test,,,,,,,,,,,596,71,poldrack-categorize,584,854543,0.0-583.0,72b54e98-25a8-44ed-9509-6e891da9e4b5,,1500,250,stim,,"<div class = centerbox><div class = stroop-stim style = ""color:green"">GREEN</div></div>","66,71,82",1500,test,,,congruent,TRUE,71,,,500,green,green,-1,-1,poldrack-single-stim,585,855303,0.0-584.0,72b54e98-25a8-44ed-9509-6e891da9e4b5,,500,500,fixation,,<div class = centerbox><div class = fixation>+</div></div>,none,500,test,,,,,,,,,,,1057,82,poldrack-categorize,586,857816,0.0-585.0,72b54e98-25a8-44ed-9509-6e891da9e4b5,,1500,250,stim,,"<div class = centerbox><div class = stroop-stim style = ""color:green"">RED</div></div>","66,71,82",1500,test,,,incongruent,FALSE,71,,,500,green,red,-1,-1,poldrack-single-stim,587,858577,0.0-586.0,72b54e98-25a8-44ed-9509-6e891da9e4b5,,500,500,fixation,,<div class = centerbox><div class = fixation>+</div></div>,none,500,test,,,,,,,,,,,695,66,poldrack-categorize,588,861090,0.0-587.0,72b54e98-25a8-44ed-9509-6e891da9e4b5,,1500,250,stim,,"<div class = centerbox><div class = stroop-stim style = ""color:blue"">RED</div></div>","66,71,82",1500,test,,,incongruent,TRUE,66,,,500,blue,red,-1,-1,poldrack-single-stim,589,861851,0.0-588.0,72b54e98-25a8-44ed-9509-6e891da9e4b5,,500,500,fixation,,<div class = centerbox><div class = fixation>+</div></div>,none,500,test,,,,,,,,,,,1341,71,poldrack-categorize,590,864364,0.0-589.0,72b54e98-25a8-44ed-9509-6e891da9e4b5,,1500,250,stim,,"<div class = centerbox><div class = stroop-stim style = ""color:green"">BLUE</div></div>","66,71,82",1500,test,,,incongruent,TRUE,71,,,500,green,blue,-1,-1,poldrack-single-stim,591,865125,0.0-590.0,72b54e98-25a8-44ed-9509-6e891da9e4b5,,500,500,fixation,,<div class = centerbox><div class = fixation>+</div></div>,none,500,test,,,,,,,,,,,780,71,poldrack-categorize,592,867638,0.0-591.0,72b54e98-25a8-44ed-9509-6e891da9e4b5,,1500,250,stim,,"<div class = centerbox><div class = stroop-stim style = ""color:green"">RED</div></div>","66,71,82",1500,test,,,incongruent,TRUE,71,,,500,green,red,-1,-1,poldrack-single-stim,593,868398,0.0-592.0,72b54e98-25a8-44ed-9509-6e891da9e4b5,,500,500,fixation,,<div class = centerbox><div class = fixation>+</div></div>,none,500,test,,,,,,,,,,,529,71,poldrack-categorize,594,870911,0.0-593.0,72b54e98-25a8-44ed-9509-6e891da9e4b5,,1500,250,stim,,"<div class = centerbox><div class = stroop-stim style = ""color:green"">GREEN</div></div>","66,71,82",1500,test,,,congruent,TRUE,71,,,500,green,green,-1,-1,poldrack-single-stim,595,871672,0.0-594.0,72b54e98-25a8-44ed-9509-6e891da9e4b5,,500,500,fixation,,<div class = centerbox><div class = fixation>+</div></div>,none,500,test,,,,,,,,,,,783,71,poldrack-categorize,596,874185,0.0-595.0,72b54e98-25a8-44ed-9509-6e891da9e4b5,,1500,250,stim,,"<div class = centerbox><div class = stroop-stim style = ""color:green"">GREEN</div></div>","66,71,82",1500,test,,,congruent,TRUE,71,,,500,green,green,-1,-1,poldrack-single-stim,597,874946,0.0-596.0,72b54e98-25a8-44ed-9509-6e891da9e4b5,,500,500,fixation,,<div class = centerbox><div class = fixation>+</div></div>,none,500,test,,,,,,,,,,,694,66,poldrack-categorize,598,877459,0.0-597.0,72b54e98-25a8-44ed-9509-6e891da9e4b5,,1500,250,stim,,"<div class = centerbox><div class = stroop-stim style = ""color:blue"">RED</div></div>","66,71,82",1500,test,,,incongruent,TRUE,66,,,500,blue,red,-1,-1,poldrack-single-stim,599,878219,0.0-598.0,72b54e98-25a8-44ed-9509-6e891da9e4b5,,500,500,fixation,,<div class = centerbox><div class = fixation>+</div></div>,none,500,test,,,,,,,,,,,587,66,poldrack-categorize,600,880733,0.0-599.0,72b54e98-25a8-44ed-9509-6e891da9e4b5,,1500,250,stim,,"<div class = centerbox><div class = stroop-stim style = ""color:blue"">BLUE</div></div>","66,71,82",1500,test,,,congruent,TRUE,66,,,500,blue,blue,-1,-1,poldrack-single-stim,601,881487,0.0-600.0,72b54e98-25a8-44ed-9509-6e891da9e4b5,,500,500,fixation,,<div class = centerbox><div class = fixation>+</div></div>,none,500,test,,,,,,,,,,,693,66,poldrack-categorize,602,884001,0.0-601.0,72b54e98-25a8-44ed-9509-6e891da9e4b5,,1500,250,stim,,"<div class = centerbox><div class = stroop-stim style = ""color:blue"">GREEN</div></div>","66,71,82",1500,test,,,incongruent,TRUE,66,,,500,blue,green,-1,-1,poldrack-single-stim,603,884761,0.0-602.0,72b54e98-25a8-44ed-9509-6e891da9e4b5,,500,500,fixation,,<div class = centerbox><div class = fixation>+</div></div>,none,500,test,,,,,,,,,,,1132,66,poldrack-categorize,604,887272,0.0-603.0,72b54e98-25a8-44ed-9509-6e891da9e4b5,,1500,250,stim,,"<div class = centerbox><div class = stroop-stim style = ""color:blue"">RED</div></div>","66,71,82",1500,test,,,incongruent,TRUE,66,,,500,blue,red,-1,-1,poldrack-single-stim,605,888029,0.0-604.0,72b54e98-25a8-44ed-9509-6e891da9e4b5,,500,500,fixation,,<div class = centerbox><div class = fixation>+</div></div>,none,500,test,,,,,,,,,,,695,66,poldrack-categorize,606,890538,0.0-605.0,72b54e98-25a8-44ed-9509-6e891da9e4b5,,1500,250,stim,,"<div class = centerbox><div class = stroop-stim style = ""color:blue"">BLUE</div></div>","66,71,82",1500,test,,,congruent,TRUE,66,,,500,blue,blue,-1,-1,poldrack-single-stim,607,891297,0.0-606.0,72b54e98-25a8-44ed-9509-6e891da9e4b5,,500,500,fixation,,<div class = centerbox><div class = fixation>+</div></div>,none,500,test,,,,,,,,,,,859,82,poldrack-categorize,608,893810,0.0-607.0,72b54e98-25a8-44ed-9509-6e891da9e4b5,,1500,250,stim,,"<div class = centerbox><div class = stroop-stim style = ""color:red"">GREEN</div></div>","66,71,82",1500,test,,,incongruent,TRUE,82,,,500,red,green,-1,-1,poldrack-single-stim,609,894571,0.0-608.0,72b54e98-25a8-44ed-9509-6e891da9e4b5,,500,500,fixation,,<div class = centerbox><div class = fixation>+</div></div>,none,500,test,,,,,,,,,,,642,82,poldrack-categorize,610,897084,0.0-609.0,72b54e98-25a8-44ed-9509-6e891da9e4b5,,1500,250,stim,,"<div class = centerbox><div class = stroop-stim style = ""color:red"">RED</div></div>","66,71,82",1500,test,,,congruent,TRUE,82,,,500,red,red,-1,-1,poldrack-single-stim,611,897844,0.0-610.0,72b54e98-25a8-44ed-9509-6e891da9e4b5,,500,500,fixation,,<div class = centerbox><div class = fixation>+</div></div>,none,500,test,,,,,,,,,,,575,82,poldrack-categorize,612,900358,0.0-611.0,72b54e98-25a8-44ed-9509-6e891da9e4b5,,1500,250,stim,,"<div class = centerbox><div class = stroop-stim style = ""color:red"">RED</div></div>","66,71,82",1500,test,,,congruent,TRUE,82,,,500,red,red,-1,-1,poldrack-single-stim,613,901118,0.0-612.0,72b54e98-25a8-44ed-9509-6e891da9e4b5,,500,500,fixation,,<div class = centerbox><div class = fixation>+</div></div>,none,500,test,,,,,,,,,,,567,82,poldrack-categorize,614,903631,0.0-613.0,72b54e98-25a8-44ed-9509-6e891da9e4b5,,1500,250,stim,,"<div class = centerbox><div class = stroop-stim style = ""color:red"">RED</div></div>","66,71,82",1500,test,,,congruent,TRUE,82,,,500,red,red,-1,-1,poldrack-single-stim,615,904392,0.0-614.0,72b54e98-25a8-44ed-9509-6e891da9e4b5,,500,500,fixation,,<div class = centerbox><div class = fixation>+</div></div>,none,500,test,,,,,,,,,,,714,66,poldrack-categorize,616,906905,0.0-615.0,72b54e98-25a8-44ed-9509-6e891da9e4b5,,1500,250,stim,,"<div class = centerbox><div class = stroop-stim style = ""color:blue"">BLUE</div></div>","66,71,82",1500,test,,,congruent,TRUE,66,,,500,blue,blue,-1,-1,poldrack-single-stim,617,907666,0.0-616.0,72b54e98-25a8-44ed-9509-6e891da9e4b5,,500,500,fixation,,<div class = centerbox><div class = fixation>+</div></div>,none,500,test,,,,,,,,,,,1386,71,poldrack-categorize,618,910173,0.0-617.0,72b54e98-25a8-44ed-9509-6e891da9e4b5,,1500,250,stim,,"<div class = centerbox><div class = stroop-stim style = ""color:green"">GREEN</div></div>","66,71,82",1500,test,,,congruent,TRUE,71,,,500,green,green,-1,-1,poldrack-single-stim,619,910933,0.0-618.0,72b54e98-25a8-44ed-9509-6e891da9e4b5,,500,500,fixation,,<div class = centerbox><div class = fixation>+</div></div>,none,500,test,,,,,,,,,,,573,71,poldrack-categorize,620,913447,0.0-619.0,72b54e98-25a8-44ed-9509-6e891da9e4b5,,1500,250,stim,,"<div class = centerbox><div class = stroop-stim style = ""color:green"">GREEN</div></div>","66,71,82",1500,test,,,congruent,TRUE,71,,,500,green,green,-1,-1,poldrack-single-stim,621,914207,0.0-620.0,72b54e98-25a8-44ed-9509-6e891da9e4b5,,500,500,fixation,,<div class = centerbox><div class = fixation>+</div></div>,none,500,test,,,,,,,,,,,731,82,poldrack-categorize,622,916721,0.0-621.0,72b54e98-25a8-44ed-9509-6e891da9e4b5,,1500,250,stim,,"<div class = centerbox><div class = stroop-stim style = ""color:red"">GREEN</div></div>","66,71,82",1500,test,,,incongruent,TRUE,82,,,500,red,green,-1,-1,poldrack-single-stim,623,917481,0.0-622.0,72b54e98-25a8-44ed-9509-6e891da9e4b5,,500,500,fixation,,<div class = centerbox><div class = fixation>+</div></div>,none,500,test,,,,,,,,,,,746,82,poldrack-categorize,624,919994,0.0-623.0,72b54e98-25a8-44ed-9509-6e891da9e4b5,,1500,250,stim,,"<div class = centerbox><div class = stroop-stim style = ""color:red"">RED</div></div>","66,71,82",1500,test,,,congruent,TRUE,82,,,500,red,red,-1,-1,poldrack-single-stim,625,920749,0.0-624.0,72b54e98-25a8-44ed-9509-6e891da9e4b5,,500,500,fixation,,<div class = centerbox><div class = fixation>+</div></div>,none,500,test,,,,,,,,,,,524,82,poldrack-categorize,626,923262,0.0-625.0,72b54e98-25a8-44ed-9509-6e891da9e4b5,,1500,250,stim,,"<div class = centerbox><div class = stroop-stim style = ""color:red"">GREEN</div></div>","66,71,82",1500,test,,,incongruent,TRUE,82,,,500,red,green,-1,-1,poldrack-single-stim,627,924019,0.0-626.0,72b54e98-25a8-44ed-9509-6e891da9e4b5,,500,500,fixation,,<div class = centerbox><div class = fixation>+</div></div>,none,500,test,,,,,,,,,,,600,82,poldrack-categorize,628,926530,0.0-627.0,72b54e98-25a8-44ed-9509-6e891da9e4b5,,1500,250,stim,,"<div class = centerbox><div class = stroop-stim style = ""color:red"">RED</div></div>","66,71,82",1500,test,,,congruent,TRUE,82,,,500,red,red,-1,-1,poldrack-single-stim,629,927291,0.0-628.0,72b54e98-25a8-44ed-9509-6e891da9e4b5,,500,500,fixation,,<div class = centerbox><div class = fixation>+</div></div>,none,500,test,,,,,,,,,,,1046,82,poldrack-categorize,630,929804,0.0-629.0,72b54e98-25a8-44ed-9509-6e891da9e4b5,,1500,250,stim,,"<div class = centerbox><div class = stroop-stim style = ""color:red"">BLUE</div></div>","66,71,82",1500,test,,,incongruent,TRUE,82,,,500,red,blue,-1,-1,poldrack-single-stim,631,930564,0.0-630.0,72b54e98-25a8-44ed-9509-6e891da9e4b5,,500,500,fixation,,<div class = centerbox><div class = fixation>+</div></div>,none,500,test,,,,,,,,,,,684,71,poldrack-categorize,632,933078,0.0-631.0,72b54e98-25a8-44ed-9509-6e891da9e4b5,,1500,250,stim,,"<div class = centerbox><div class = stroop-stim style = ""color:green"">GREEN</div></div>","66,71,82",1500,test,,,congruent,TRUE,71,,,500,green,green,30796,,survey-text,633,964131,0.0-633.0,72b54e98-25a8-44ed-9509-6e891da9e4b5,,,,post task questions,,,,,,,,,,,"{""Q0"":""ID red, green, and blue words."",""Q1"":""None""}",,,,,2662,13,poldrack-text,634,967799,0.0-634.0,72b54e98-25a8-44ed-9509-6e891da9e4b5,<div class = centerbox><p class = center-block-text>Thanks for completing this task!</p><p class = center-block-text>Press <strong>enter</strong> to continue.</p></div>,2662,0,end,,,,,,,,,,,,stroop,,,,TRUE9260,13,text,635,977102,0.0-635.0,72b54e98-25a8-44ed-9509-6e891da9e4b5,,,,,,,,,,,,,,,,,,,,