rt,key_press,trial_type,trial_index,time_elapsed,internal_node_id,subject,text,block_duration,timing_post_trial,trial_id,view_history,stimulus,possible_responses,stim_duration,exp_stage,stim_place,stim_id,condition,correct,correct_response,responses,exp_id,feedback_duration,stim_color,stim_word,credit_var7428,13,text,0,7431,0.0-0.0,68184568-804a-4b53-b55f-48b9c6acfe99,,,,,,,,,,,,,,,,,,,,4223,13,poldrack-text,389,338881,0.0-388.0-0.0,68184568-804a-4b53-b55f-48b9c6acfe99,<div class = centerbox><p class = center-block-text>Done with instructions. Press <strong>enter</strong> to continue.</p></div>,4223,0,instruction,,,,,,,,,,,,,,,,26622,,poldrack-instructions,390,365503,0.0-388.0-1.0,68184568-804a-4b53-b55f-48b9c6acfe99,,,,instruction,"[{""page_index"":0,""viewing_time"":26621}]",,,,,,,,,,,,,,,1480,13,poldrack-text,391,367992,0.0-389.0,68184568-804a-4b53-b55f-48b9c6acfe99,"<div class = centerbox><p class = block-text>We will start with a few practice trials. Remember, press the key corresponding to the <strong>ink</strong> color of the word: ""r"" for words colored red, ""b"" for words colored blue, and ""g"" for words colored green.</p><p class = block-text>Press <strong>enter</strong> to begin practice.</p></div>",1480,1000,practice_intro,,,,,,,,,,,,,,,,-1,-1,poldrack-single-stim,392,369496,0.0-390.0,68184568-804a-4b53-b55f-48b9c6acfe99,,500,500,fixation,,<div class = centerbox><div class = fixation>+</div></div>,none,500,practice,,,,,,,,,,,1020,71,poldrack-categorize,393,372011,0.0-391.0,68184568-804a-4b53-b55f-48b9c6acfe99,,1500,250,stim,,"<div class = centerbox><div class = stroop-stim style = ""color:green"">BLUE</div></div>","66,71,82",1500,practice,,,incongruent,TRUE,71,,,500,green,blue,-1,-1,poldrack-single-stim,394,372772,0.0-392.0,68184568-804a-4b53-b55f-48b9c6acfe99,,500,500,fixation,,<div class = centerbox><div class = fixation>+</div></div>,none,500,practice,,,,,,,,,,,498,71,poldrack-categorize,395,375285,0.0-393.0,68184568-804a-4b53-b55f-48b9c6acfe99,,1500,250,stim,,"<div class = centerbox><div class = stroop-stim style = ""color:green"">GREEN</div></div>","66,71,82",1500,practice,,,congruent,TRUE,71,,,500,green,green,-1,-1,poldrack-single-stim,396,376046,0.0-394.0,68184568-804a-4b53-b55f-48b9c6acfe99,,500,500,fixation,,<div class = centerbox><div class = fixation>+</div></div>,none,500,practice,,,,,,,,,,,413,66,poldrack-categorize,397,378553,0.0-395.0,68184568-804a-4b53-b55f-48b9c6acfe99,,1500,250,stim,,"<div class = centerbox><div class = stroop-stim style = ""color:blue"">BLUE</div></div>","66,71,82",1500,practice,,,congruent,TRUE,66,,,500,blue,blue,-1,-1,poldrack-single-stim,398,379310,0.0-396.0,68184568-804a-4b53-b55f-48b9c6acfe99,,500,500,fixation,,<div class = centerbox><div class = fixation>+</div></div>,none,500,practice,,,,,,,,,,,898,66,poldrack-categorize,399,381821,0.0-397.0,68184568-804a-4b53-b55f-48b9c6acfe99,,1500,250,stim,,"<div class = centerbox><div class = stroop-stim style = ""color:blue"">RED</div></div>","66,71,82",1500,practice,,,incongruent,TRUE,66,,,500,blue,red,-1,-1,poldrack-single-stim,400,382582,0.0-398.0,68184568-804a-4b53-b55f-48b9c6acfe99,,500,500,fixation,,<div class = centerbox><div class = fixation>+</div></div>,none,500,practice,,,,,,,,,,,472,66,poldrack-categorize,401,385089,0.0-399.0,68184568-804a-4b53-b55f-48b9c6acfe99,,1500,250,stim,,"<div class = centerbox><div class = stroop-stim style = ""color:blue"">GREEN</div></div>","66,71,82",1500,practice,,,incongruent,TRUE,66,,,500,blue,green,-1,-1,poldrack-single-stim,402,385850,0.0-400.0,68184568-804a-4b53-b55f-48b9c6acfe99,,500,500,fixation,,<div class = centerbox><div class = fixation>+</div></div>,none,500,practice,,,,,,,,,,,412,66,poldrack-categorize,403,388363,0.0-401.0,68184568-804a-4b53-b55f-48b9c6acfe99,,1500,250,stim,,"<div class = centerbox><div class = stroop-stim style = ""color:blue"">BLUE</div></div>","66,71,82",1500,practice,,,congruent,TRUE,66,,,500,blue,blue,-1,-1,poldrack-single-stim,404,389124,0.0-402.0,68184568-804a-4b53-b55f-48b9c6acfe99,,500,500,fixation,,<div class = centerbox><div class = fixation>+</div></div>,none,500,practice,,,,,,,,,,,498,66,poldrack-categorize,405,391637,0.0-403.0,68184568-804a-4b53-b55f-48b9c6acfe99,,1500,250,stim,,"<div class = centerbox><div class = stroop-stim style = ""color:blue"">GREEN</div></div>","66,71,82",1500,practice,,,incongruent,TRUE,66,,,500,blue,green,-1,-1,poldrack-single-stim,406,392398,0.0-404.0,68184568-804a-4b53-b55f-48b9c6acfe99,,500,500,fixation,,<div class = centerbox><div class = fixation>+</div></div>,none,500,practice,,,,,,,,,,,600,71,poldrack-categorize,407,394911,0.0-405.0,68184568-804a-4b53-b55f-48b9c6acfe99,,1500,250,stim,,"<div class = centerbox><div class = stroop-stim style = ""color:green"">GREEN</div></div>","66,71,82",1500,practice,,,congruent,TRUE,71,,,500,green,green,-1,-1,poldrack-single-stim,408,395666,0.0-406.0,68184568-804a-4b53-b55f-48b9c6acfe99,,500,500,fixation,,<div class = centerbox><div class = fixation>+</div></div>,none,500,practice,,,,,,,,,,,755,71,poldrack-categorize,409,398179,0.0-407.0,68184568-804a-4b53-b55f-48b9c6acfe99,,1500,250,stim,,"<div class = centerbox><div class = stroop-stim style = ""color:green"">RED</div></div>","66,71,82",1500,practice,,,incongruent,TRUE,71,,,500,green,red,-1,-1,poldrack-single-stim,410,398940,0.0-408.0,68184568-804a-4b53-b55f-48b9c6acfe99,,500,500,fixation,,<div class = centerbox><div class = fixation>+</div></div>,none,500,practice,,,,,,,,,,,721,66,poldrack-categorize,411,401453,0.0-409.0,68184568-804a-4b53-b55f-48b9c6acfe99,,1500,250,stim,,"<div class = centerbox><div class = stroop-stim style = ""color:blue"">BLUE</div></div>","66,71,82",1500,practice,,,congruent,TRUE,66,,,500,blue,blue,-1,-1,poldrack-single-stim,412,402214,0.0-410.0,68184568-804a-4b53-b55f-48b9c6acfe99,,500,500,fixation,,<div class = centerbox><div class = fixation>+</div></div>,none,500,practice,,,,,,,,,,,768,71,poldrack-categorize,413,404727,0.0-411.0,68184568-804a-4b53-b55f-48b9c6acfe99,,1500,250,stim,,"<div class = centerbox><div class = stroop-stim style = ""color:green"">RED</div></div>","66,71,82",1500,practice,,,incongruent,TRUE,71,,,500,green,red,-1,-1,poldrack-single-stim,414,405486,0.0-412.0,68184568-804a-4b53-b55f-48b9c6acfe99,,500,500,fixation,,<div class = centerbox><div class = fixation>+</div></div>,none,500,practice,,,,,,,,,,,427,82,poldrack-categorize,415,407992,0.0-413.0,68184568-804a-4b53-b55f-48b9c6acfe99,,1500,250,stim,,"<div class = centerbox><div class = stroop-stim style = ""color:red"">BLUE</div></div>","66,71,82",1500,practice,,,incongruent,TRUE,82,,,500,red,blue,-1,-1,poldrack-single-stim,416,408750,0.0-414.0,68184568-804a-4b53-b55f-48b9c6acfe99,,500,500,fixation,,<div class = centerbox><div class = fixation>+</div></div>,none,500,practice,,,,,,,,,,,519,82,poldrack-categorize,417,411263,0.0-415.0,68184568-804a-4b53-b55f-48b9c6acfe99,,1500,250,stim,,"<div class = centerbox><div class = stroop-stim style = ""color:red"">RED</div></div>","66,71,82",1500,practice,,,congruent,TRUE,82,,,500,red,red,-1,-1,poldrack-single-stim,418,412024,0.0-416.0,68184568-804a-4b53-b55f-48b9c6acfe99,,500,500,fixation,,<div class = centerbox><div class = fixation>+</div></div>,none,500,practice,,,,,,,,,,,775,71,poldrack-categorize,419,414537,0.0-417.0,68184568-804a-4b53-b55f-48b9c6acfe99,,1500,250,stim,,"<div class = centerbox><div class = stroop-stim style = ""color:green"">GREEN</div></div>","66,71,82",1500,practice,,,congruent,TRUE,71,,,500,green,green,-1,-1,poldrack-single-stim,420,415298,0.0-418.0,68184568-804a-4b53-b55f-48b9c6acfe99,,500,500,fixation,,<div class = centerbox><div class = fixation>+</div></div>,none,500,practice,,,,,,,,,,,516,66,poldrack-categorize,421,417811,0.0-419.0,68184568-804a-4b53-b55f-48b9c6acfe99,,1500,250,stim,,"<div class = centerbox><div class = stroop-stim style = ""color:blue"">BLUE</div></div>","66,71,82",1500,practice,,,congruent,TRUE,66,,,500,blue,blue,-1,-1,poldrack-single-stim,422,418571,0.0-420.0,68184568-804a-4b53-b55f-48b9c6acfe99,,500,500,fixation,,<div class = centerbox><div class = fixation>+</div></div>,none,500,practice,,,,,,,,,,,641,82,poldrack-categorize,423,421085,0.0-421.0,68184568-804a-4b53-b55f-48b9c6acfe99,,1500,250,stim,,"<div class = centerbox><div class = stroop-stim style = ""color:red"">GREEN</div></div>","66,71,82",1500,practice,,,incongruent,TRUE,82,,,500,red,green,-1,-1,poldrack-single-stim,424,421845,0.0-422.0,68184568-804a-4b53-b55f-48b9c6acfe99,,500,500,fixation,,<div class = centerbox><div class = fixation>+</div></div>,none,500,practice,,,,,,,,,,,1064,71,poldrack-categorize,425,424359,0.0-423.0,68184568-804a-4b53-b55f-48b9c6acfe99,,1500,250,stim,,"<div class = centerbox><div class = stroop-stim style = ""color:green"">BLUE</div></div>","66,71,82",1500,practice,,,incongruent,TRUE,71,,,500,green,blue,-1,-1,poldrack-single-stim,426,425119,0.0-424.0,68184568-804a-4b53-b55f-48b9c6acfe99,,500,500,fixation,,<div class = centerbox><div class = fixation>+</div></div>,none,500,practice,,,,,,,,,,,549,71,poldrack-categorize,427,427633,0.0-425.0,68184568-804a-4b53-b55f-48b9c6acfe99,,1500,250,stim,,"<div class = centerbox><div class = stroop-stim style = ""color:green"">GREEN</div></div>","66,71,82",1500,practice,,,congruent,TRUE,71,,,500,green,green,-1,-1,poldrack-single-stim,428,428393,0.0-426.0,68184568-804a-4b53-b55f-48b9c6acfe99,,500,500,fixation,,<div class = centerbox><div class = fixation>+</div></div>,none,500,practice,,,,,,,,,,,755,82,poldrack-categorize,429,430907,0.0-427.0,68184568-804a-4b53-b55f-48b9c6acfe99,,1500,250,stim,,"<div class = centerbox><div class = stroop-stim style = ""color:red"">BLUE</div></div>","66,71,82",1500,practice,,,incongruent,TRUE,82,,,500,red,blue,-1,-1,poldrack-single-stim,430,431667,0.0-428.0,68184568-804a-4b53-b55f-48b9c6acfe99,,500,500,fixation,,<div class = centerbox><div class = fixation>+</div></div>,none,500,practice,,,,,,,,,,,1161,66,poldrack-categorize,431,434180,0.0-429.0,68184568-804a-4b53-b55f-48b9c6acfe99,,1500,250,stim,,"<div class = centerbox><div class = stroop-stim style = ""color:blue"">RED</div></div>","66,71,82",1500,practice,,,incongruent,TRUE,66,,,500,blue,red,-1,-1,poldrack-single-stim,432,434941,0.0-430.0,68184568-804a-4b53-b55f-48b9c6acfe99,,500,500,fixation,,<div class = centerbox><div class = fixation>+</div></div>,none,500,practice,,,,,,,,,,,647,82,poldrack-categorize,433,437454,0.0-431.0,68184568-804a-4b53-b55f-48b9c6acfe99,,1500,250,stim,,"<div class = centerbox><div class = stroop-stim style = ""color:red"">RED</div></div>","66,71,82",1500,practice,,,congruent,TRUE,82,,,500,red,red,-1,-1,poldrack-single-stim,434,438215,0.0-432.0,68184568-804a-4b53-b55f-48b9c6acfe99,,500,500,fixation,,<div class = centerbox><div class = fixation>+</div></div>,none,500,practice,,,,,,,,,,,565,82,poldrack-categorize,435,440728,0.0-433.0,68184568-804a-4b53-b55f-48b9c6acfe99,,1500,250,stim,,"<div class = centerbox><div class = stroop-stim style = ""color:red"">RED</div></div>","66,71,82",1500,practice,,,congruent,TRUE,82,,,500,red,red,-1,-1,poldrack-single-stim,436,441489,0.0-434.0,68184568-804a-4b53-b55f-48b9c6acfe99,,500,500,fixation,,<div class = centerbox><div class = fixation>+</div></div>,none,500,practice,,,,,,,,,,,491,82,poldrack-categorize,437,444002,0.0-435.0,68184568-804a-4b53-b55f-48b9c6acfe99,,1500,250,stim,,"<div class = centerbox><div class = stroop-stim style = ""color:red"">GREEN</div></div>","66,71,82",1500,practice,,,incongruent,TRUE,82,,,500,red,green,-1,-1,poldrack-single-stim,438,444763,0.0-436.0,68184568-804a-4b53-b55f-48b9c6acfe99,,500,500,fixation,,<div class = centerbox><div class = fixation>+</div></div>,none,500,practice,,,,,,,,,,,521,82,poldrack-categorize,439,447276,0.0-437.0,68184568-804a-4b53-b55f-48b9c6acfe99,,1500,250,stim,,"<div class = centerbox><div class = stroop-stim style = ""color:red"">RED</div></div>","66,71,82",1500,practice,,,congruent,TRUE,82,,,500,red,red,5250,13,poldrack-text,440,452781,0.0-439.0,68184568-804a-4b53-b55f-48b9c6acfe99,<div class = centerbox><p class = center-block-text>We will now start the test. Respond exactly like you did during practice.</p><p class = center-block-text>Press <strong>enter</strong> to begin the test.</p></div>,5250,1000,test_intro,,,,,,,,,,,,,,,,-1,-1,poldrack-single-stim,441,454285,0.0-440.0,68184568-804a-4b53-b55f-48b9c6acfe99,,500,500,fixation,,<div class = centerbox><div class = fixation>+</div></div>,none,500,test,,,,,,,,,,,473,82,poldrack-categorize,442,456796,0.0-441.0,68184568-804a-4b53-b55f-48b9c6acfe99,,1500,250,stim,,"<div class = centerbox><div class = stroop-stim style = ""color:red"">RED</div></div>","66,71,82",1500,test,,,congruent,TRUE,82,,,500,red,red,-1,-1,poldrack-single-stim,443,457556,0.0-442.0,68184568-804a-4b53-b55f-48b9c6acfe99,,500,500,fixation,,<div class = centerbox><div class = fixation>+</div></div>,none,500,test,,,,,,,,,,,689,66,poldrack-categorize,444,460064,0.0-443.0,68184568-804a-4b53-b55f-48b9c6acfe99,,1500,250,stim,,"<div class = centerbox><div class = stroop-stim style = ""color:blue"">GREEN</div></div>","66,71,82",1500,test,,,incongruent,TRUE,66,,,500,blue,green,-1,-1,poldrack-single-stim,445,460822,0.0-444.0,68184568-804a-4b53-b55f-48b9c6acfe99,,500,500,fixation,,<div class = centerbox><div class = fixation>+</div></div>,none,500,test,,,,,,,,,,,489,66,poldrack-categorize,446,463326,0.0-445.0,68184568-804a-4b53-b55f-48b9c6acfe99,,1500,250,stim,,"<div class = centerbox><div class = stroop-stim style = ""color:blue"">GREEN</div></div>","66,71,82",1500,test,,,incongruent,TRUE,66,,,500,blue,green,-1,-1,poldrack-single-stim,447,464087,0.0-446.0,68184568-804a-4b53-b55f-48b9c6acfe99,,500,500,fixation,,<div class = centerbox><div class = fixation>+</div></div>,none,500,test,,,,,,,,,,,573,82,poldrack-categorize,448,466594,0.0-447.0,68184568-804a-4b53-b55f-48b9c6acfe99,,1500,250,stim,,"<div class = centerbox><div class = stroop-stim style = ""color:red"">RED</div></div>","66,71,82",1500,test,,,congruent,TRUE,82,,,500,red,red,-1,-1,poldrack-single-stim,449,467355,0.0-448.0,68184568-804a-4b53-b55f-48b9c6acfe99,,500,500,fixation,,<div class = centerbox><div class = fixation>+</div></div>,none,500,test,,,,,,,,,,,512,82,poldrack-categorize,450,469868,0.0-449.0,68184568-804a-4b53-b55f-48b9c6acfe99,,1500,250,stim,,"<div class = centerbox><div class = stroop-stim style = ""color:red"">BLUE</div></div>","66,71,82",1500,test,,,incongruent,TRUE,82,,,500,red,blue,-1,-1,poldrack-single-stim,451,470623,0.0-450.0,68184568-804a-4b53-b55f-48b9c6acfe99,,500,500,fixation,,<div class = centerbox><div class = fixation>+</div></div>,none,500,test,,,,,,,,,,,524,82,poldrack-categorize,452,473130,0.0-451.0,68184568-804a-4b53-b55f-48b9c6acfe99,,1500,250,stim,,"<div class = centerbox><div class = stroop-stim style = ""color:red"">GREEN</div></div>","66,71,82",1500,test,,,incongruent,TRUE,82,,,500,red,green,-1,-1,poldrack-single-stim,453,473891,0.0-452.0,68184568-804a-4b53-b55f-48b9c6acfe99,,500,500,fixation,,<div class = centerbox><div class = fixation>+</div></div>,none,500,test,,,,,,,,,,,1392,66,poldrack-categorize,454,476402,0.0-453.0,68184568-804a-4b53-b55f-48b9c6acfe99,,1500,250,stim,,"<div class = centerbox><div class = stroop-stim style = ""color:blue"">BLUE</div></div>","66,71,82",1500,test,,,congruent,TRUE,66,,,500,blue,blue,-1,-1,poldrack-single-stim,455,477159,0.0-454.0,68184568-804a-4b53-b55f-48b9c6acfe99,,500,500,fixation,,<div class = centerbox><div class = fixation>+</div></div>,none,500,test,,,,,,,,,,,508,71,poldrack-categorize,456,479672,0.0-455.0,68184568-804a-4b53-b55f-48b9c6acfe99,,1500,250,stim,,"<div class = centerbox><div class = stroop-stim style = ""color:green"">BLUE</div></div>","66,71,82",1500,test,,,incongruent,TRUE,71,,,500,green,blue,-1,-1,poldrack-single-stim,457,480429,0.0-456.0,68184568-804a-4b53-b55f-48b9c6acfe99,,500,500,fixation,,<div class = centerbox><div class = fixation>+</div></div>,none,500,test,,,,,,,,,,,720,66,poldrack-categorize,458,482934,0.0-457.0,68184568-804a-4b53-b55f-48b9c6acfe99,,1500,250,stim,,"<div class = centerbox><div class = stroop-stim style = ""color:blue"">GREEN</div></div>","66,71,82",1500,test,,,incongruent,TRUE,66,,,500,blue,green,-1,-1,poldrack-single-stim,459,483695,0.0-458.0,68184568-804a-4b53-b55f-48b9c6acfe99,,500,500,fixation,,<div class = centerbox><div class = fixation>+</div></div>,none,500,test,,,,,,,,,,,699,82,poldrack-categorize,460,486208,0.0-459.0,68184568-804a-4b53-b55f-48b9c6acfe99,,1500,250,stim,,"<div class = centerbox><div class = stroop-stim style = ""color:red"">BLUE</div></div>","66,71,82",1500,test,,,incongruent,TRUE,82,,,500,red,blue,-1,-1,poldrack-single-stim,461,486968,0.0-460.0,68184568-804a-4b53-b55f-48b9c6acfe99,,500,500,fixation,,<div class = centerbox><div class = fixation>+</div></div>,none,500,test,,,,,,,,,,,955,66,poldrack-categorize,462,489482,0.0-461.0,68184568-804a-4b53-b55f-48b9c6acfe99,,1500,250,stim,,"<div class = centerbox><div class = stroop-stim style = ""color:blue"">RED</div></div>","66,71,82",1500,test,,,incongruent,TRUE,66,,,500,blue,red,-1,-1,poldrack-single-stim,463,490239,0.0-462.0,68184568-804a-4b53-b55f-48b9c6acfe99,,500,500,fixation,,<div class = centerbox><div class = fixation>+</div></div>,none,500,test,,,,,,,,,,,546,71,poldrack-categorize,464,492750,0.0-463.0,68184568-804a-4b53-b55f-48b9c6acfe99,,1500,250,stim,,"<div class = centerbox><div class = stroop-stim style = ""color:green"">GREEN</div></div>","66,71,82",1500,test,,,congruent,TRUE,71,,,500,green,green,-1,-1,poldrack-single-stim,465,493510,0.0-464.0,68184568-804a-4b53-b55f-48b9c6acfe99,,500,500,fixation,,<div class = centerbox><div class = fixation>+</div></div>,none,500,test,,,,,,,,,,,637,82,poldrack-categorize,466,496023,0.0-465.0,68184568-804a-4b53-b55f-48b9c6acfe99,,1500,250,stim,,"<div class = centerbox><div class = stroop-stim style = ""color:red"">GREEN</div></div>","66,71,82",1500,test,,,incongruent,TRUE,82,,,500,red,green,-1,-1,poldrack-single-stim,467,496782,0.0-466.0,68184568-804a-4b53-b55f-48b9c6acfe99,,500,500,fixation,,<div class = centerbox><div class = fixation>+</div></div>,none,500,test,,,,,,,,,,,498,82,poldrack-categorize,468,499297,0.0-467.0,68184568-804a-4b53-b55f-48b9c6acfe99,,1500,250,stim,,"<div class = centerbox><div class = stroop-stim style = ""color:red"">RED</div></div>","66,71,82",1500,test,,,congruent,TRUE,82,,,500,red,red,-1,-1,poldrack-single-stim,469,500058,0.0-468.0,68184568-804a-4b53-b55f-48b9c6acfe99,,500,500,fixation,,<div class = centerbox><div class = fixation>+</div></div>,none,500,test,,,,,,,,,,,418,82,poldrack-categorize,470,502565,0.0-469.0,68184568-804a-4b53-b55f-48b9c6acfe99,,1500,250,stim,,"<div class = centerbox><div class = stroop-stim style = ""color:red"">RED</div></div>","66,71,82",1500,test,,,congruent,TRUE,82,,,500,red,red,-1,-1,poldrack-single-stim,471,503326,0.0-470.0,68184568-804a-4b53-b55f-48b9c6acfe99,,500,500,fixation,,<div class = centerbox><div class = fixation>+</div></div>,none,500,test,,,,,,,,,,,476,82,poldrack-categorize,472,505839,0.0-471.0,68184568-804a-4b53-b55f-48b9c6acfe99,,1500,250,stim,,"<div class = centerbox><div class = stroop-stim style = ""color:red"">BLUE</div></div>","66,71,82",1500,test,,,incongruent,TRUE,82,,,500,red,blue,-1,-1,poldrack-single-stim,473,506598,0.0-472.0,68184568-804a-4b53-b55f-48b9c6acfe99,,500,500,fixation,,<div class = centerbox><div class = fixation>+</div></div>,none,500,test,,,,,,,,,,,618,66,poldrack-categorize,474,509113,0.0-473.0,68184568-804a-4b53-b55f-48b9c6acfe99,,1500,250,stim,,"<div class = centerbox><div class = stroop-stim style = ""color:blue"">RED</div></div>","66,71,82",1500,test,,,incongruent,TRUE,66,,,500,blue,red,-1,-1,poldrack-single-stim,475,509873,0.0-474.0,68184568-804a-4b53-b55f-48b9c6acfe99,,500,500,fixation,,<div class = centerbox><div class = fixation>+</div></div>,none,500,test,,,,,,,,,,,648,82,poldrack-categorize,476,512387,0.0-475.0,68184568-804a-4b53-b55f-48b9c6acfe99,,1500,250,stim,,"<div class = centerbox><div class = stroop-stim style = ""color:red"">BLUE</div></div>","66,71,82",1500,test,,,incongruent,TRUE,82,,,500,red,blue,-1,-1,poldrack-single-stim,477,513147,0.0-476.0,68184568-804a-4b53-b55f-48b9c6acfe99,,500,500,fixation,,<div class = centerbox><div class = fixation>+</div></div>,none,500,test,,,,,,,,,,,1054,66,poldrack-categorize,478,515661,0.0-477.0,68184568-804a-4b53-b55f-48b9c6acfe99,,1500,250,stim,,"<div class = centerbox><div class = stroop-stim style = ""color:blue"">RED</div></div>","66,71,82",1500,test,,,incongruent,TRUE,66,,,500,blue,red,-1,-1,poldrack-single-stim,479,516421,0.0-478.0,68184568-804a-4b53-b55f-48b9c6acfe99,,500,500,fixation,,<div class = centerbox><div class = fixation>+</div></div>,none,500,test,,,,,,,,,,,613,71,poldrack-categorize,480,518928,0.0-479.0,68184568-804a-4b53-b55f-48b9c6acfe99,,1500,250,stim,,"<div class = centerbox><div class = stroop-stim style = ""color:green"">BLUE</div></div>","66,71,82",1500,test,,,incongruent,TRUE,71,,,500,green,blue,-1,-1,poldrack-single-stim,481,519683,0.0-480.0,68184568-804a-4b53-b55f-48b9c6acfe99,,500,500,fixation,,<div class = centerbox><div class = fixation>+</div></div>,none,500,test,,,,,,,,,,,1069,82,poldrack-categorize,482,522197,0.0-481.0,68184568-804a-4b53-b55f-48b9c6acfe99,,1500,250,stim,,"<div class = centerbox><div class = stroop-stim style = ""color:blue"">RED</div></div>","66,71,82",1500,test,,,incongruent,FALSE,66,,,500,blue,red,-1,-1,poldrack-single-stim,483,522957,0.0-482.0,68184568-804a-4b53-b55f-48b9c6acfe99,,500,500,fixation,,<div class = centerbox><div class = fixation>+</div></div>,none,500,test,,,,,,,,,,,708,82,poldrack-categorize,484,525470,0.0-483.0,68184568-804a-4b53-b55f-48b9c6acfe99,,1500,250,stim,,"<div class = centerbox><div class = stroop-stim style = ""color:red"">BLUE</div></div>","66,71,82",1500,test,,,incongruent,TRUE,82,,,500,red,blue,-1,-1,poldrack-single-stim,485,526231,0.0-484.0,68184568-804a-4b53-b55f-48b9c6acfe99,,500,500,fixation,,<div class = centerbox><div class = fixation>+</div></div>,none,500,test,,,,,,,,,,,1049,66,poldrack-categorize,486,528744,0.0-485.0,68184568-804a-4b53-b55f-48b9c6acfe99,,1500,250,stim,,"<div class = centerbox><div class = stroop-stim style = ""color:blue"">GREEN</div></div>","66,71,82",1500,test,,,incongruent,TRUE,66,,,500,blue,green,-1,-1,poldrack-single-stim,487,529505,0.0-486.0,68184568-804a-4b53-b55f-48b9c6acfe99,,500,500,fixation,,<div class = centerbox><div class = fixation>+</div></div>,none,500,test,,,,,,,,,,,815,71,poldrack-categorize,488,532018,0.0-487.0,68184568-804a-4b53-b55f-48b9c6acfe99,,1500,250,stim,,"<div class = centerbox><div class = stroop-stim style = ""color:green"">GREEN</div></div>","66,71,82",1500,test,,,congruent,TRUE,71,,,500,green,green,-1,-1,poldrack-single-stim,489,532774,0.0-488.0,68184568-804a-4b53-b55f-48b9c6acfe99,,500,500,fixation,,<div class = centerbox><div class = fixation>+</div></div>,none,500,test,,,,,,,,,,,716,71,poldrack-categorize,490,535286,0.0-489.0,68184568-804a-4b53-b55f-48b9c6acfe99,,1500,250,stim,,"<div class = centerbox><div class = stroop-stim style = ""color:green"">GREEN</div></div>","66,71,82",1500,test,,,congruent,TRUE,71,,,500,green,green,-1,-1,poldrack-single-stim,491,536041,0.0-490.0,68184568-804a-4b53-b55f-48b9c6acfe99,,500,500,fixation,,<div class = centerbox><div class = fixation>+</div></div>,none,500,test,,,,,,,,,,,574,71,poldrack-categorize,492,538554,0.0-491.0,68184568-804a-4b53-b55f-48b9c6acfe99,,1500,250,stim,,"<div class = centerbox><div class = stroop-stim style = ""color:green"">GREEN</div></div>","66,71,82",1500,test,,,congruent,TRUE,71,,,500,green,green,-1,-1,poldrack-single-stim,493,539309,0.0-492.0,68184568-804a-4b53-b55f-48b9c6acfe99,,500,500,fixation,,<div class = centerbox><div class = fixation>+</div></div>,none,500,test,,,,,,,,,,,586,82,poldrack-categorize,494,541822,0.0-493.0,68184568-804a-4b53-b55f-48b9c6acfe99,,1500,250,stim,,"<div class = centerbox><div class = stroop-stim style = ""color:red"">RED</div></div>","66,71,82",1500,test,,,congruent,TRUE,82,,,500,red,red,-1,-1,poldrack-single-stim,495,542582,0.0-494.0,68184568-804a-4b53-b55f-48b9c6acfe99,,500,500,fixation,,<div class = centerbox><div class = fixation>+</div></div>,none,500,test,,,,,,,,,,,738,82,poldrack-categorize,496,545096,0.0-495.0,68184568-804a-4b53-b55f-48b9c6acfe99,,1500,250,stim,,"<div class = centerbox><div class = stroop-stim style = ""color:red"">RED</div></div>","66,71,82",1500,test,,,congruent,TRUE,82,,,500,red,red,-1,-1,poldrack-single-stim,497,545856,0.0-496.0,68184568-804a-4b53-b55f-48b9c6acfe99,,500,500,fixation,,<div class = centerbox><div class = fixation>+</div></div>,none,500,test,,,,,,,,,,,648,82,poldrack-categorize,498,548370,0.0-497.0,68184568-804a-4b53-b55f-48b9c6acfe99,,1500,250,stim,,"<div class = centerbox><div class = stroop-stim style = ""color:red"">GREEN</div></div>","66,71,82",1500,test,,,incongruent,TRUE,82,,,500,red,green,-1,-1,poldrack-single-stim,499,549130,0.0-498.0,68184568-804a-4b53-b55f-48b9c6acfe99,,500,500,fixation,,<div class = centerbox><div class = fixation>+</div></div>,none,500,test,,,,,,,,,,,715,71,poldrack-categorize,500,551643,0.0-499.0,68184568-804a-4b53-b55f-48b9c6acfe99,,1500,250,stim,,"<div class = centerbox><div class = stroop-stim style = ""color:green"">GREEN</div></div>","66,71,82",1500,test,,,congruent,TRUE,71,,,500,green,green,-1,-1,poldrack-single-stim,501,552404,0.0-500.0,68184568-804a-4b53-b55f-48b9c6acfe99,,500,500,fixation,,<div class = centerbox><div class = fixation>+</div></div>,none,500,test,,,,,,,,,,,611,66,poldrack-categorize,502,554914,0.0-501.0,68184568-804a-4b53-b55f-48b9c6acfe99,,1500,250,stim,,"<div class = centerbox><div class = stroop-stim style = ""color:blue"">BLUE</div></div>","66,71,82",1500,test,,,congruent,TRUE,66,,,500,blue,blue,-1,-1,poldrack-single-stim,503,555672,0.0-502.0,68184568-804a-4b53-b55f-48b9c6acfe99,,500,500,fixation,,<div class = centerbox><div class = fixation>+</div></div>,none,500,test,,,,,,,,,,,525,66,poldrack-categorize,504,558185,0.0-503.0,68184568-804a-4b53-b55f-48b9c6acfe99,,1500,250,stim,,"<div class = centerbox><div class = stroop-stim style = ""color:blue"">BLUE</div></div>","66,71,82",1500,test,,,congruent,TRUE,66,,,500,blue,blue,-1,-1,poldrack-single-stim,505,558941,0.0-504.0,68184568-804a-4b53-b55f-48b9c6acfe99,,500,500,fixation,,<div class = centerbox><div class = fixation>+</div></div>,none,500,test,,,,,,,,,,,423,71,poldrack-categorize,506,561453,0.0-505.0,68184568-804a-4b53-b55f-48b9c6acfe99,,1500,250,stim,,"<div class = centerbox><div class = stroop-stim style = ""color:green"">RED</div></div>","66,71,82",1500,test,,,incongruent,TRUE,71,,,500,green,red,-1,-1,poldrack-single-stim,507,562214,0.0-506.0,68184568-804a-4b53-b55f-48b9c6acfe99,,500,500,fixation,,<div class = centerbox><div class = fixation>+</div></div>,none,500,test,,,,,,,,,,,617,82,poldrack-categorize,508,564727,0.0-507.0,68184568-804a-4b53-b55f-48b9c6acfe99,,1500,250,stim,,"<div class = centerbox><div class = stroop-stim style = ""color:red"">GREEN</div></div>","66,71,82",1500,test,,,incongruent,TRUE,82,,,500,red,green,-1,-1,poldrack-single-stim,509,565488,0.0-508.0,68184568-804a-4b53-b55f-48b9c6acfe99,,500,500,fixation,,<div class = centerbox><div class = fixation>+</div></div>,none,500,test,,,,,,,,,,,629,66,poldrack-categorize,510,568001,0.0-509.0,68184568-804a-4b53-b55f-48b9c6acfe99,,1500,250,stim,,"<div class = centerbox><div class = stroop-stim style = ""color:blue"">BLUE</div></div>","66,71,82",1500,test,,,congruent,TRUE,66,,,500,blue,blue,-1,-1,poldrack-single-stim,511,568761,0.0-510.0,68184568-804a-4b53-b55f-48b9c6acfe99,,500,500,fixation,,<div class = centerbox><div class = fixation>+</div></div>,none,500,test,,,,,,,,,,,1221,82,poldrack-categorize,512,571272,0.0-511.0,68184568-804a-4b53-b55f-48b9c6acfe99,,1500,250,stim,,"<div class = centerbox><div class = stroop-stim style = ""color:red"">GREEN</div></div>","66,71,82",1500,test,,,incongruent,TRUE,82,,,500,red,green,-1,-1,poldrack-single-stim,513,572029,0.0-512.0,68184568-804a-4b53-b55f-48b9c6acfe99,,500,500,fixation,,<div class = centerbox><div class = fixation>+</div></div>,none,500,test,,,,,,,,,,,1167,66,poldrack-categorize,514,574540,0.0-513.0,68184568-804a-4b53-b55f-48b9c6acfe99,,1500,250,stim,,"<div class = centerbox><div class = stroop-stim style = ""color:blue"">BLUE</div></div>","66,71,82",1500,test,,,congruent,TRUE,66,,,500,blue,blue,-1,-1,poldrack-single-stim,515,575297,0.0-514.0,68184568-804a-4b53-b55f-48b9c6acfe99,,500,500,fixation,,<div class = centerbox><div class = fixation>+</div></div>,none,500,test,,,,,,,,,,,419,71,poldrack-categorize,516,577811,0.0-515.0,68184568-804a-4b53-b55f-48b9c6acfe99,,1500,250,stim,,"<div class = centerbox><div class = stroop-stim style = ""color:green"">GREEN</div></div>","66,71,82",1500,test,,,congruent,TRUE,71,,,500,green,green,-1,-1,poldrack-single-stim,517,578565,0.0-516.0,68184568-804a-4b53-b55f-48b9c6acfe99,,500,500,fixation,,<div class = centerbox><div class = fixation>+</div></div>,none,500,test,,,,,,,,,,,661,82,poldrack-categorize,518,581079,0.0-517.0,68184568-804a-4b53-b55f-48b9c6acfe99,,1500,250,stim,,"<div class = centerbox><div class = stroop-stim style = ""color:red"">RED</div></div>","66,71,82",1500,test,,,congruent,TRUE,82,,,500,red,red,-1,-1,poldrack-single-stim,519,581839,0.0-518.0,68184568-804a-4b53-b55f-48b9c6acfe99,,500,500,fixation,,<div class = centerbox><div class = fixation>+</div></div>,none,500,test,,,,,,,,,,,879,66,poldrack-categorize,520,584352,0.0-519.0,68184568-804a-4b53-b55f-48b9c6acfe99,,1500,250,stim,,"<div class = centerbox><div class = stroop-stim style = ""color:blue"">RED</div></div>","66,71,82",1500,test,,,incongruent,TRUE,66,,,500,blue,red,-1,-1,poldrack-single-stim,521,585113,0.0-520.0,68184568-804a-4b53-b55f-48b9c6acfe99,,500,500,fixation,,<div class = centerbox><div class = fixation>+</div></div>,none,500,test,,,,,,,,,,,676,71,poldrack-categorize,522,587626,0.0-521.0,68184568-804a-4b53-b55f-48b9c6acfe99,,1500,250,stim,,"<div class = centerbox><div class = stroop-stim style = ""color:green"">GREEN</div></div>","66,71,82",1500,test,,,congruent,TRUE,71,,,500,green,green,-1,-1,poldrack-single-stim,523,588381,0.0-522.0,68184568-804a-4b53-b55f-48b9c6acfe99,,500,500,fixation,,<div class = centerbox><div class = fixation>+</div></div>,none,500,test,,,,,,,,,,,782,66,poldrack-categorize,524,590894,0.0-523.0,68184568-804a-4b53-b55f-48b9c6acfe99,,1500,250,stim,,"<div class = centerbox><div class = stroop-stim style = ""color:blue"">RED</div></div>","66,71,82",1500,test,,,incongruent,TRUE,66,,,500,blue,red,-1,-1,poldrack-single-stim,525,591655,0.0-524.0,68184568-804a-4b53-b55f-48b9c6acfe99,,500,500,fixation,,<div class = centerbox><div class = fixation>+</div></div>,none,500,test,,,,,,,,,,,1037,71,poldrack-categorize,526,594168,0.0-525.0,68184568-804a-4b53-b55f-48b9c6acfe99,,1500,250,stim,,"<div class = centerbox><div class = stroop-stim style = ""color:green"">GREEN</div></div>","66,71,82",1500,test,,,congruent,TRUE,71,,,500,green,green,-1,-1,poldrack-single-stim,527,594929,0.0-526.0,68184568-804a-4b53-b55f-48b9c6acfe99,,500,500,fixation,,<div class = centerbox><div class = fixation>+</div></div>,none,500,test,,,,,,,,,,,652,82,poldrack-categorize,528,597441,0.0-527.0,68184568-804a-4b53-b55f-48b9c6acfe99,,1500,250,stim,,"<div class = centerbox><div class = stroop-stim style = ""color:red"">RED</div></div>","66,71,82",1500,test,,,congruent,TRUE,82,,,500,red,red,-1,-1,poldrack-single-stim,529,598197,0.0-528.0,68184568-804a-4b53-b55f-48b9c6acfe99,,500,500,fixation,,<div class = centerbox><div class = fixation>+</div></div>,none,500,test,,,,,,,,,,,670,71,poldrack-categorize,530,600710,0.0-529.0,68184568-804a-4b53-b55f-48b9c6acfe99,,1500,250,stim,,"<div class = centerbox><div class = stroop-stim style = ""color:green"">GREEN</div></div>","66,71,82",1500,test,,,congruent,TRUE,71,,,500,green,green,-1,-1,poldrack-single-stim,531,601470,0.0-530.0,68184568-804a-4b53-b55f-48b9c6acfe99,,500,500,fixation,,<div class = centerbox><div class = fixation>+</div></div>,none,500,test,,,,,,,,,,,589,71,poldrack-categorize,532,603984,0.0-531.0,68184568-804a-4b53-b55f-48b9c6acfe99,,1500,250,stim,,"<div class = centerbox><div class = stroop-stim style = ""color:green"">GREEN</div></div>","66,71,82",1500,test,,,congruent,TRUE,71,,,500,green,green,-1,-1,poldrack-single-stim,533,604740,0.0-532.0,68184568-804a-4b53-b55f-48b9c6acfe99,,500,500,fixation,,<div class = centerbox><div class = fixation>+</div></div>,none,500,test,,,,,,,,,,,600,66,poldrack-categorize,534,607252,0.0-533.0,68184568-804a-4b53-b55f-48b9c6acfe99,,1500,250,stim,,"<div class = centerbox><div class = stroop-stim style = ""color:blue"">BLUE</div></div>","66,71,82",1500,test,,,congruent,TRUE,66,,,500,blue,blue,-1,-1,poldrack-single-stim,535,608006,0.0-534.0,68184568-804a-4b53-b55f-48b9c6acfe99,,500,500,fixation,,<div class = centerbox><div class = fixation>+</div></div>,none,500,test,,,,,,,,,,,604,66,poldrack-categorize,536,610520,0.0-535.0,68184568-804a-4b53-b55f-48b9c6acfe99,,1500,250,stim,,"<div class = centerbox><div class = stroop-stim style = ""color:blue"">BLUE</div></div>","66,71,82",1500,test,,,congruent,TRUE,66,,,500,blue,blue,-1,-1,poldrack-single-stim,537,611280,0.0-536.0,68184568-804a-4b53-b55f-48b9c6acfe99,,500,500,fixation,,<div class = centerbox><div class = fixation>+</div></div>,none,500,test,,,,,,,,,,,515,66,poldrack-categorize,538,613794,0.0-537.0,68184568-804a-4b53-b55f-48b9c6acfe99,,1500,250,stim,,"<div class = centerbox><div class = stroop-stim style = ""color:blue"">BLUE</div></div>","66,71,82",1500,test,,,congruent,TRUE,66,,,500,blue,blue,-1,-1,poldrack-single-stim,539,614553,0.0-538.0,68184568-804a-4b53-b55f-48b9c6acfe99,,500,500,fixation,,<div class = centerbox><div class = fixation>+</div></div>,none,500,test,,,,,,,,,,,1455,71,poldrack-categorize,540,617067,0.0-539.0,68184568-804a-4b53-b55f-48b9c6acfe99,,1500,250,stim,,"<div class = centerbox><div class = stroop-stim style = ""color:green"">GREEN</div></div>","66,71,82",1500,test,,,congruent,TRUE,71,,,500,green,green,-1,-1,poldrack-single-stim,541,617828,0.0-540.0,68184568-804a-4b53-b55f-48b9c6acfe99,,500,500,fixation,,<div class = centerbox><div class = fixation>+</div></div>,none,500,test,,,,,,,,,,,631,71,poldrack-categorize,542,620341,0.0-541.0,68184568-804a-4b53-b55f-48b9c6acfe99,,1500,250,stim,,"<div class = centerbox><div class = stroop-stim style = ""color:green"">BLUE</div></div>","66,71,82",1500,test,,,incongruent,TRUE,71,,,500,green,blue,-1,-1,poldrack-single-stim,543,621102,0.0-542.0,68184568-804a-4b53-b55f-48b9c6acfe99,,500,500,fixation,,<div class = centerbox><div class = fixation>+</div></div>,none,500,test,,,,,,,,,,,670,66,poldrack-categorize,544,623615,0.0-543.0,68184568-804a-4b53-b55f-48b9c6acfe99,,1500,250,stim,,"<div class = centerbox><div class = stroop-stim style = ""color:blue"">GREEN</div></div>","66,71,82",1500,test,,,incongruent,TRUE,66,,,500,blue,green,-1,-1,poldrack-single-stim,545,624375,0.0-544.0,68184568-804a-4b53-b55f-48b9c6acfe99,,500,500,fixation,,<div class = centerbox><div class = fixation>+</div></div>,none,500,test,,,,,,,,,,,651,82,poldrack-categorize,546,626889,0.0-545.0,68184568-804a-4b53-b55f-48b9c6acfe99,,1500,250,stim,,"<div class = centerbox><div class = stroop-stim style = ""color:red"">RED</div></div>","66,71,82",1500,test,,,congruent,TRUE,82,,,500,red,red,-1,-1,poldrack-single-stim,547,627648,0.0-546.0,68184568-804a-4b53-b55f-48b9c6acfe99,,500,500,fixation,,<div class = centerbox><div class = fixation>+</div></div>,none,500,test,,,,,,,,,,,503,66,poldrack-categorize,548,630162,0.0-547.0,68184568-804a-4b53-b55f-48b9c6acfe99,,1500,250,stim,,"<div class = centerbox><div class = stroop-stim style = ""color:green"">GREEN</div></div>","66,71,82",1500,test,,,congruent,FALSE,71,,,500,green,green,-1,-1,poldrack-single-stim,549,630923,0.0-548.0,68184568-804a-4b53-b55f-48b9c6acfe99,,500,500,fixation,,<div class = centerbox><div class = fixation>+</div></div>,none,500,test,,,,,,,,,,,631,71,poldrack-categorize,550,633436,0.0-549.0,68184568-804a-4b53-b55f-48b9c6acfe99,,1500,250,stim,,"<div class = centerbox><div class = stroop-stim style = ""color:green"">BLUE</div></div>","66,71,82",1500,test,,,incongruent,TRUE,71,,,500,green,blue,-1,-1,poldrack-single-stim,551,634197,0.0-550.0,68184568-804a-4b53-b55f-48b9c6acfe99,,500,500,fixation,,<div class = centerbox><div class = fixation>+</div></div>,none,500,test,,,,,,,,,,,597,82,poldrack-categorize,552,636710,0.0-551.0,68184568-804a-4b53-b55f-48b9c6acfe99,,1500,250,stim,,"<div class = centerbox><div class = stroop-stim style = ""color:red"">RED</div></div>","66,71,82",1500,test,,,congruent,TRUE,82,,,500,red,red,-1,-1,poldrack-single-stim,553,637471,0.0-552.0,68184568-804a-4b53-b55f-48b9c6acfe99,,500,500,fixation,,<div class = centerbox><div class = fixation>+</div></div>,none,500,test,,,,,,,,,,,778,82,poldrack-categorize,554,639980,0.0-553.0,68184568-804a-4b53-b55f-48b9c6acfe99,,1500,250,stim,,"<div class = centerbox><div class = stroop-stim style = ""color:green"">RED</div></div>","66,71,82",1500,test,,,incongruent,FALSE,71,,,500,green,red,-1,-1,poldrack-single-stim,555,640740,0.0-554.0,68184568-804a-4b53-b55f-48b9c6acfe99,,500,500,fixation,,<div class = centerbox><div class = fixation>+</div></div>,none,500,test,,,,,,,,,,,797,82,poldrack-categorize,556,643246,0.0-555.0,68184568-804a-4b53-b55f-48b9c6acfe99,,1500,250,stim,,"<div class = centerbox><div class = stroop-stim style = ""color:red"">GREEN</div></div>","66,71,82",1500,test,,,incongruent,TRUE,82,,,500,red,green,-1,-1,poldrack-single-stim,557,644007,0.0-556.0,68184568-804a-4b53-b55f-48b9c6acfe99,,500,500,fixation,,<div class = centerbox><div class = fixation>+</div></div>,none,500,test,,,,,,,,,,,508,71,poldrack-categorize,558,646514,0.0-557.0,68184568-804a-4b53-b55f-48b9c6acfe99,,1500,250,stim,,"<div class = centerbox><div class = stroop-stim style = ""color:green"">GREEN</div></div>","66,71,82",1500,test,,,congruent,TRUE,71,,,500,green,green,-1,-1,poldrack-single-stim,559,647275,0.0-558.0,68184568-804a-4b53-b55f-48b9c6acfe99,,500,500,fixation,,<div class = centerbox><div class = fixation>+</div></div>,none,500,test,,,,,,,,,,,783,66,poldrack-categorize,560,649788,0.0-559.0,68184568-804a-4b53-b55f-48b9c6acfe99,,1500,250,stim,,"<div class = centerbox><div class = stroop-stim style = ""color:blue"">BLUE</div></div>","66,71,82",1500,test,,,congruent,TRUE,66,,,500,blue,blue,-1,-1,poldrack-single-stim,561,650548,0.0-560.0,68184568-804a-4b53-b55f-48b9c6acfe99,,500,500,fixation,,<div class = centerbox><div class = fixation>+</div></div>,none,500,test,,,,,,,,,,,557,66,poldrack-categorize,562,653057,0.0-561.0,68184568-804a-4b53-b55f-48b9c6acfe99,,1500,250,stim,,"<div class = centerbox><div class = stroop-stim style = ""color:blue"">BLUE</div></div>","66,71,82",1500,test,,,congruent,TRUE,66,,,500,blue,blue,-1,-1,poldrack-single-stim,563,653817,0.0-562.0,68184568-804a-4b53-b55f-48b9c6acfe99,,500,500,fixation,,<div class = centerbox><div class = fixation>+</div></div>,none,500,test,,,,,,,,,,,576,71,poldrack-categorize,564,656330,0.0-563.0,68184568-804a-4b53-b55f-48b9c6acfe99,,1500,250,stim,,"<div class = centerbox><div class = stroop-stim style = ""color:green"">GREEN</div></div>","66,71,82",1500,test,,,congruent,TRUE,71,,,500,green,green,-1,-1,poldrack-single-stim,565,657092,0.0-564.0,68184568-804a-4b53-b55f-48b9c6acfe99,,500,500,fixation,,<div class = centerbox><div class = fixation>+</div></div>,none,500,test,,,,,,,,,,,717,71,poldrack-categorize,566,659604,0.0-565.0,68184568-804a-4b53-b55f-48b9c6acfe99,,1500,250,stim,,"<div class = centerbox><div class = stroop-stim style = ""color:green"">BLUE</div></div>","66,71,82",1500,test,,,incongruent,TRUE,71,,,500,green,blue,-1,-1,poldrack-single-stim,567,660364,0.0-566.0,68184568-804a-4b53-b55f-48b9c6acfe99,,500,500,fixation,,<div class = centerbox><div class = fixation>+</div></div>,none,500,test,,,,,,,,,,,539,71,poldrack-categorize,568,662877,0.0-567.0,68184568-804a-4b53-b55f-48b9c6acfe99,,1500,250,stim,,"<div class = centerbox><div class = stroop-stim style = ""color:green"">RED</div></div>","66,71,82",1500,test,,,incongruent,TRUE,71,,,500,green,red,-1,-1,poldrack-single-stim,569,663638,0.0-568.0,68184568-804a-4b53-b55f-48b9c6acfe99,,500,500,fixation,,<div class = centerbox><div class = fixation>+</div></div>,none,500,test,,,,,,,,,,,802,82,poldrack-categorize,570,666151,0.0-569.0,68184568-804a-4b53-b55f-48b9c6acfe99,,1500,250,stim,,"<div class = centerbox><div class = stroop-stim style = ""color:red"">BLUE</div></div>","66,71,82",1500,test,,,incongruent,TRUE,82,,,500,red,blue,-1,-1,poldrack-single-stim,571,666910,0.0-570.0,68184568-804a-4b53-b55f-48b9c6acfe99,,500,500,fixation,,<div class = centerbox><div class = fixation>+</div></div>,none,500,test,,,,,,,,,,,640,71,poldrack-categorize,572,669425,0.0-571.0,68184568-804a-4b53-b55f-48b9c6acfe99,,1500,250,stim,,"<div class = centerbox><div class = stroop-stim style = ""color:green"">BLUE</div></div>","66,71,82",1500,test,,,incongruent,TRUE,71,,,500,green,blue,-1,-1,poldrack-single-stim,573,670186,0.0-572.0,68184568-804a-4b53-b55f-48b9c6acfe99,,500,500,fixation,,<div class = centerbox><div class = fixation>+</div></div>,none,500,test,,,,,,,,,,,534,82,poldrack-categorize,574,672699,0.0-573.0,68184568-804a-4b53-b55f-48b9c6acfe99,,1500,250,stim,,"<div class = centerbox><div class = stroop-stim style = ""color:red"">RED</div></div>","66,71,82",1500,test,,,congruent,TRUE,82,,,500,red,red,-1,-1,poldrack-single-stim,575,673459,0.0-574.0,68184568-804a-4b53-b55f-48b9c6acfe99,,500,500,fixation,,<div class = centerbox><div class = fixation>+</div></div>,none,500,test,,,,,,,,,,,477,71,poldrack-categorize,576,675973,0.0-575.0,68184568-804a-4b53-b55f-48b9c6acfe99,,1500,250,stim,,"<div class = centerbox><div class = stroop-stim style = ""color:green"">GREEN</div></div>","66,71,82",1500,test,,,congruent,TRUE,71,,,500,green,green,-1,-1,poldrack-single-stim,577,676733,0.0-576.0,68184568-804a-4b53-b55f-48b9c6acfe99,,500,500,fixation,,<div class = centerbox><div class = fixation>+</div></div>,none,500,test,,,,,,,,,,,674,66,poldrack-categorize,578,679246,0.0-577.0,68184568-804a-4b53-b55f-48b9c6acfe99,,1500,250,stim,,"<div class = centerbox><div class = stroop-stim style = ""color:blue"">GREEN</div></div>","66,71,82",1500,test,,,incongruent,TRUE,66,,,500,blue,green,-1,-1,poldrack-single-stim,579,680007,0.0-578.0,68184568-804a-4b53-b55f-48b9c6acfe99,,500,500,fixation,,<div class = centerbox><div class = fixation>+</div></div>,none,500,test,,,,,,,,,,,968,71,poldrack-categorize,580,682514,0.0-579.0,68184568-804a-4b53-b55f-48b9c6acfe99,,1500,250,stim,,"<div class = centerbox><div class = stroop-stim style = ""color:red"">GREEN</div></div>","66,71,82",1500,test,,,incongruent,FALSE,82,,,500,red,green,-1,-1,poldrack-single-stim,581,683275,0.0-580.0,68184568-804a-4b53-b55f-48b9c6acfe99,,500,500,fixation,,<div class = centerbox><div class = fixation>+</div></div>,none,500,test,,,,,,,,,,,563,66,poldrack-categorize,582,685786,0.0-581.0,68184568-804a-4b53-b55f-48b9c6acfe99,,1500,250,stim,,"<div class = centerbox><div class = stroop-stim style = ""color:blue"">BLUE</div></div>","66,71,82",1500,test,,,congruent,TRUE,66,,,500,blue,blue,-1,-1,poldrack-single-stim,583,686543,0.0-582.0,68184568-804a-4b53-b55f-48b9c6acfe99,,500,500,fixation,,<div class = centerbox><div class = fixation>+</div></div>,none,500,test,,,,,,,,,,,549,66,poldrack-categorize,584,689056,0.0-583.0,68184568-804a-4b53-b55f-48b9c6acfe99,,1500,250,stim,,"<div class = centerbox><div class = stroop-stim style = ""color:blue"">BLUE</div></div>","66,71,82",1500,test,,,congruent,TRUE,66,,,500,blue,blue,-1,-1,poldrack-single-stim,585,689817,0.0-584.0,68184568-804a-4b53-b55f-48b9c6acfe99,,500,500,fixation,,<div class = centerbox><div class = fixation>+</div></div>,none,500,test,,,,,,,,,,,651,82,poldrack-categorize,586,692330,0.0-585.0,68184568-804a-4b53-b55f-48b9c6acfe99,,1500,250,stim,,"<div class = centerbox><div class = stroop-stim style = ""color:red"">BLUE</div></div>","66,71,82",1500,test,,,incongruent,TRUE,82,,,500,red,blue,-1,-1,poldrack-single-stim,587,693091,0.0-586.0,68184568-804a-4b53-b55f-48b9c6acfe99,,500,500,fixation,,<div class = centerbox><div class = fixation>+</div></div>,none,500,test,,,,,,,,,,,482,71,poldrack-categorize,588,695602,0.0-587.0,68184568-804a-4b53-b55f-48b9c6acfe99,,1500,250,stim,,"<div class = centerbox><div class = stroop-stim style = ""color:green"">BLUE</div></div>","66,71,82",1500,test,,,incongruent,TRUE,71,,,500,green,blue,-1,-1,poldrack-single-stim,589,696359,0.0-588.0,68184568-804a-4b53-b55f-48b9c6acfe99,,500,500,fixation,,<div class = centerbox><div class = fixation>+</div></div>,none,500,test,,,,,,,,,,,374,66,poldrack-categorize,590,698872,0.0-589.0,68184568-804a-4b53-b55f-48b9c6acfe99,,1500,250,stim,,"<div class = centerbox><div class = stroop-stim style = ""color:blue"">BLUE</div></div>","66,71,82",1500,test,,,congruent,TRUE,66,,,500,blue,blue,-1,-1,poldrack-single-stim,591,699632,0.0-590.0,68184568-804a-4b53-b55f-48b9c6acfe99,,500,500,fixation,,<div class = centerbox><div class = fixation>+</div></div>,none,500,test,,,,,,,,,,,582,82,poldrack-categorize,592,702146,0.0-591.0,68184568-804a-4b53-b55f-48b9c6acfe99,,1500,250,stim,,"<div class = centerbox><div class = stroop-stim style = ""color:red"">RED</div></div>","66,71,82",1500,test,,,congruent,TRUE,82,,,500,red,red,-1,-1,poldrack-single-stim,593,702906,0.0-592.0,68184568-804a-4b53-b55f-48b9c6acfe99,,500,500,fixation,,<div class = centerbox><div class = fixation>+</div></div>,none,500,test,,,,,,,,,,,667,71,poldrack-categorize,594,705419,0.0-593.0,68184568-804a-4b53-b55f-48b9c6acfe99,,1500,250,stim,,"<div class = centerbox><div class = stroop-stim style = ""color:green"">RED</div></div>","66,71,82",1500,test,,,incongruent,TRUE,71,,,500,green,red,-1,-1,poldrack-single-stim,595,706180,0.0-594.0,68184568-804a-4b53-b55f-48b9c6acfe99,,500,500,fixation,,<div class = centerbox><div class = fixation>+</div></div>,none,500,test,,,,,,,,,,,666,82,poldrack-categorize,596,708693,0.0-595.0,68184568-804a-4b53-b55f-48b9c6acfe99,,1500,250,stim,,"<div class = centerbox><div class = stroop-stim style = ""color:red"">RED</div></div>","66,71,82",1500,test,,,congruent,TRUE,82,,,500,red,red,-1,-1,poldrack-single-stim,597,709454,0.0-596.0,68184568-804a-4b53-b55f-48b9c6acfe99,,500,500,fixation,,<div class = centerbox><div class = fixation>+</div></div>,none,500,test,,,,,,,,,,,823,71,poldrack-categorize,598,711967,0.0-597.0,68184568-804a-4b53-b55f-48b9c6acfe99,,1500,250,stim,,"<div class = centerbox><div class = stroop-stim style = ""color:green"">BLUE</div></div>","66,71,82",1500,test,,,incongruent,TRUE,71,,,500,green,blue,-1,-1,poldrack-single-stim,599,712727,0.0-598.0,68184568-804a-4b53-b55f-48b9c6acfe99,,500,500,fixation,,<div class = centerbox><div class = fixation>+</div></div>,none,500,test,,,,,,,,,,,540,71,poldrack-categorize,600,715241,0.0-599.0,68184568-804a-4b53-b55f-48b9c6acfe99,,1500,250,stim,,"<div class = centerbox><div class = stroop-stim style = ""color:green"">RED</div></div>","66,71,82",1500,test,,,incongruent,TRUE,71,,,500,green,red,-1,-1,poldrack-single-stim,601,716001,0.0-600.0,68184568-804a-4b53-b55f-48b9c6acfe99,,500,500,fixation,,<div class = centerbox><div class = fixation>+</div></div>,none,500,test,,,,,,,,,,,498,71,poldrack-categorize,602,718515,0.0-601.0,68184568-804a-4b53-b55f-48b9c6acfe99,,1500,250,stim,,"<div class = centerbox><div class = stroop-stim style = ""color:green"">RED</div></div>","66,71,82",1500,test,,,incongruent,TRUE,71,,,500,green,red,-1,-1,poldrack-single-stim,603,719275,0.0-602.0,68184568-804a-4b53-b55f-48b9c6acfe99,,500,500,fixation,,<div class = centerbox><div class = fixation>+</div></div>,none,500,test,,,,,,,,,,,633,82,poldrack-categorize,604,721789,0.0-603.0,68184568-804a-4b53-b55f-48b9c6acfe99,,1500,250,stim,,"<div class = centerbox><div class = stroop-stim style = ""color:red"">RED</div></div>","66,71,82",1500,test,,,congruent,TRUE,82,,,500,red,red,-1,-1,poldrack-single-stim,605,722549,0.0-604.0,68184568-804a-4b53-b55f-48b9c6acfe99,,500,500,fixation,,<div class = centerbox><div class = fixation>+</div></div>,none,500,test,,,,,,,,,,,679,82,poldrack-categorize,606,725059,0.0-605.0,68184568-804a-4b53-b55f-48b9c6acfe99,,1500,250,stim,,"<div class = centerbox><div class = stroop-stim style = ""color:red"">GREEN</div></div>","66,71,82",1500,test,,,incongruent,TRUE,82,,,500,red,green,-1,-1,poldrack-single-stim,607,725817,0.0-606.0,68184568-804a-4b53-b55f-48b9c6acfe99,,500,500,fixation,,<div class = centerbox><div class = fixation>+</div></div>,none,500,test,,,,,,,,,,,649,71,poldrack-categorize,608,728330,0.0-607.0,68184568-804a-4b53-b55f-48b9c6acfe99,,1500,250,stim,,"<div class = centerbox><div class = stroop-stim style = ""color:green"">RED</div></div>","66,71,82",1500,test,,,incongruent,TRUE,71,,,500,green,red,-1,-1,poldrack-single-stim,609,729091,0.0-608.0,68184568-804a-4b53-b55f-48b9c6acfe99,,500,500,fixation,,<div class = centerbox><div class = fixation>+</div></div>,none,500,test,,,,,,,,,,,745,66,poldrack-categorize,610,731601,0.0-609.0,68184568-804a-4b53-b55f-48b9c6acfe99,,1500,250,stim,,"<div class = centerbox><div class = stroop-stim style = ""color:blue"">RED</div></div>","66,71,82",1500,test,,,incongruent,TRUE,66,,,500,blue,red,-1,-1,poldrack-single-stim,611,732359,0.0-610.0,68184568-804a-4b53-b55f-48b9c6acfe99,,500,500,fixation,,<div class = centerbox><div class = fixation>+</div></div>,none,500,test,,,,,,,,,,,683,71,poldrack-categorize,612,734872,0.0-611.0,68184568-804a-4b53-b55f-48b9c6acfe99,,1500,250,stim,,"<div class = centerbox><div class = stroop-stim style = ""color:red"">BLUE</div></div>","66,71,82",1500,test,,,incongruent,FALSE,82,,,500,red,blue,-1,-1,poldrack-single-stim,613,735633,0.0-612.0,68184568-804a-4b53-b55f-48b9c6acfe99,,500,500,fixation,,<div class = centerbox><div class = fixation>+</div></div>,none,500,test,,,,,,,,,,,897,66,poldrack-categorize,614,738146,0.0-613.0,68184568-804a-4b53-b55f-48b9c6acfe99,,1500,250,stim,,"<div class = centerbox><div class = stroop-stim style = ""color:blue"">RED</div></div>","66,71,82",1500,test,,,incongruent,TRUE,66,,,500,blue,red,-1,-1,poldrack-single-stim,615,738907,0.0-614.0,68184568-804a-4b53-b55f-48b9c6acfe99,,500,500,fixation,,<div class = centerbox><div class = fixation>+</div></div>,none,500,test,,,,,,,,,,,561,82,poldrack-categorize,616,741418,0.0-615.0,68184568-804a-4b53-b55f-48b9c6acfe99,,1500,250,stim,,"<div class = centerbox><div class = stroop-stim style = ""color:red"">RED</div></div>","66,71,82",1500,test,,,congruent,TRUE,82,,,500,red,red,-1,-1,poldrack-single-stim,617,742175,0.0-616.0,68184568-804a-4b53-b55f-48b9c6acfe99,,500,500,fixation,,<div class = centerbox><div class = fixation>+</div></div>,none,500,test,,,,,,,,,,,491,66,poldrack-categorize,618,744688,0.0-617.0,68184568-804a-4b53-b55f-48b9c6acfe99,,1500,250,stim,,"<div class = centerbox><div class = stroop-stim style = ""color:blue"">BLUE</div></div>","66,71,82",1500,test,,,congruent,TRUE,66,,,500,blue,blue,-1,-1,poldrack-single-stim,619,745448,0.0-618.0,68184568-804a-4b53-b55f-48b9c6acfe99,,500,500,fixation,,<div class = centerbox><div class = fixation>+</div></div>,none,500,test,,,,,,,,,,,636,66,poldrack-categorize,620,747962,0.0-619.0,68184568-804a-4b53-b55f-48b9c6acfe99,,1500,250,stim,,"<div class = centerbox><div class = stroop-stim style = ""color:blue"">GREEN</div></div>","66,71,82",1500,test,,,incongruent,TRUE,66,,,500,blue,green,-1,-1,poldrack-single-stim,621,748722,0.0-620.0,68184568-804a-4b53-b55f-48b9c6acfe99,,500,500,fixation,,<div class = centerbox><div class = fixation>+</div></div>,none,500,test,,,,,,,,,,,487,66,poldrack-categorize,622,751235,0.0-621.0,68184568-804a-4b53-b55f-48b9c6acfe99,,1500,250,stim,,"<div class = centerbox><div class = stroop-stim style = ""color:blue"">GREEN</div></div>","66,71,82",1500,test,,,incongruent,TRUE,66,,,500,blue,green,-1,-1,poldrack-single-stim,623,751996,0.0-622.0,68184568-804a-4b53-b55f-48b9c6acfe99,,500,500,fixation,,<div class = centerbox><div class = fixation>+</div></div>,none,500,test,,,,,,,,,,,766,71,poldrack-categorize,624,754509,0.0-623.0,68184568-804a-4b53-b55f-48b9c6acfe99,,1500,250,stim,,"<div class = centerbox><div class = stroop-stim style = ""color:green"">GREEN</div></div>","66,71,82",1500,test,,,congruent,TRUE,71,,,500,green,green,-1,-1,poldrack-single-stim,625,755264,0.0-624.0,68184568-804a-4b53-b55f-48b9c6acfe99,,500,500,fixation,,<div class = centerbox><div class = fixation>+</div></div>,none,500,test,,,,,,,,,,,1138,66,poldrack-categorize,626,757777,0.0-625.0,68184568-804a-4b53-b55f-48b9c6acfe99,,1500,250,stim,,"<div class = centerbox><div class = stroop-stim style = ""color:blue"">BLUE</div></div>","66,71,82",1500,test,,,congruent,TRUE,66,,,500,blue,blue,-1,-1,poldrack-single-stim,627,758538,0.0-626.0,68184568-804a-4b53-b55f-48b9c6acfe99,,500,500,fixation,,<div class = centerbox><div class = fixation>+</div></div>,none,500,test,,,,,,,,,,,721,71,poldrack-categorize,628,761051,0.0-627.0,68184568-804a-4b53-b55f-48b9c6acfe99,,1500,250,stim,,"<div class = centerbox><div class = stroop-stim style = ""color:green"">RED</div></div>","66,71,82",1500,test,,,incongruent,TRUE,71,,,500,green,red,-1,-1,poldrack-single-stim,629,761812,0.0-628.0,68184568-804a-4b53-b55f-48b9c6acfe99,,500,500,fixation,,<div class = centerbox><div class = fixation>+</div></div>,none,500,test,,,,,,,,,,,655,82,poldrack-categorize,630,764325,0.0-629.0,68184568-804a-4b53-b55f-48b9c6acfe99,,1500,250,stim,,"<div class = centerbox><div class = stroop-stim style = ""color:red"">RED</div></div>","66,71,82",1500,test,,,congruent,TRUE,82,,,500,red,red,-1,-1,poldrack-single-stim,631,765085,0.0-630.0,68184568-804a-4b53-b55f-48b9c6acfe99,,500,500,fixation,,<div class = centerbox><div class = fixation>+</div></div>,none,500,test,,,,,,,,,,,573,66,poldrack-categorize,632,767599,0.0-631.0,68184568-804a-4b53-b55f-48b9c6acfe99,,1500,250,stim,,"<div class = centerbox><div class = stroop-stim style = ""color:blue"">BLUE</div></div>","66,71,82",1500,test,,,congruent,TRUE,66,,,500,blue,blue,36924,,survey-text,633,804780,0.0-633.0,68184568-804a-4b53-b55f-48b9c6acfe99,,,,post task questions,,,,,,,,,,,"{""Q0"":""i was asked to click the corrisponding key with the corrisppnding i=k color."",""Q1"":""""}",,,,,1897,13,poldrack-text,634,807678,0.0-634.0,68184568-804a-4b53-b55f-48b9c6acfe99,<div class = centerbox><p class = center-block-text>Thanks for completing this task!</p><p class = center-block-text>Press <strong>enter</strong> to continue.</p></div>,1897,0,end,,,,,,,,,,,,stroop,,,,TRUE3808,13,text,635,811526,0.0-635.0,68184568-804a-4b53-b55f-48b9c6acfe99,,,,,,,,,,,,,,,,,,,,