rt,key_press,trial_type,trial_index,time_elapsed,internal_node_id,subject,text,block_duration,timing_post_trial,trial_id,view_history,stimulus,possible_responses,stim_duration,exp_stage,correct,correct_response,feedback_duration,condition,stim_color,stim_word,responses,exp_id,credit_var,stim_place,stim_id41912,13,text,0,41914,0.0-0.0,a0738ccc-1d90-43d6-8209-f87a040a8106,,,,,,,,,,,,,,,,,,,,19521,13,poldrack-text,1,62439,0.0-1.0-0.0,a0738ccc-1d90-43d6-8209-f87a040a8106,<div class = centerbox><p class = center-block-text>Welcome to the experiment. This experiment will take about 8 minutes. Press <strong>enter</strong> to begin.</p></div>,19521,0,instruction,,,,,,,,,,,,,,,,26668,,poldrack-instructions,2,89109,0.0-1.0-1.0,a0738ccc-1d90-43d6-8209-f87a040a8106,,,,instruction,"[{""page_index"":0,""viewing_time"":26668}]",,,,,,,,,,,,,,,7601,13,poldrack-text,3,97716,0.0-2.0,a0738ccc-1d90-43d6-8209-f87a040a8106,"<div class = centerbox><p class = block-text>We will start with a few practice trials. Remember, press the key corresponding to the <strong>ink</strong> color of the word: ""r"" for words colored red, ""b"" for words colored blue, and ""g"" for words colored green.</p><p class = block-text>Press <strong>enter</strong> to begin practice.</p></div>",7601,1000,practice_intro,,,,,,,,,,,,,,,,-1,-1,poldrack-single-stim,4,99228,0.0-3.0,a0738ccc-1d90-43d6-8209-f87a040a8106,,500,500,fixation,,<div class = centerbox><div class = fixation>+</div></div>,none,500,practice,,,,,,,,,,,-1,-1,poldrack-categorize,5,101737,0.0-4.0,a0738ccc-1d90-43d6-8209-f87a040a8106,,1500,250,stim,,"<div class = centerbox><div class = stroop-stim style = ""color:green"">BLUE</div></div>","66,71,82",1500,practice,FALSE,71,500,incongruent,green,blue,,,,,-1,-1,poldrack-single-stim,6,102493,0.0-5.0,a0738ccc-1d90-43d6-8209-f87a040a8106,,500,500,fixation,,<div class = centerbox><div class = fixation>+</div></div>,none,500,practice,,,,,,,,,,,1440,82,poldrack-categorize,7,105002,0.0-6.0,a0738ccc-1d90-43d6-8209-f87a040a8106,,1500,250,stim,,"<div class = centerbox><div class = stroop-stim style = ""color:red"">BLUE</div></div>","66,71,82",1500,practice,TRUE,82,500,incongruent,red,blue,,,,,-1,-1,poldrack-single-stim,8,105760,0.0-7.0,a0738ccc-1d90-43d6-8209-f87a040a8106,,500,500,fixation,,<div class = centerbox><div class = fixation>+</div></div>,none,500,practice,,,,,,,,,,,848,71,poldrack-categorize,9,108274,0.0-8.0,a0738ccc-1d90-43d6-8209-f87a040a8106,,1500,250,stim,,"<div class = centerbox><div class = stroop-stim style = ""color:red"">GREEN</div></div>","66,71,82",1500,practice,FALSE,82,500,incongruent,red,green,,,,,-1,-1,poldrack-single-stim,10,109031,0.0-9.0,a0738ccc-1d90-43d6-8209-f87a040a8106,,500,500,fixation,,<div class = centerbox><div class = fixation>+</div></div>,none,500,practice,,,,,,,,,,,1411,66,poldrack-categorize,11,111544,0.0-10.0,a0738ccc-1d90-43d6-8209-f87a040a8106,,1500,250,stim,,"<div class = centerbox><div class = stroop-stim style = ""color:blue"">GREEN</div></div>","66,71,82",1500,practice,TRUE,66,500,incongruent,blue,green,,,,,-1,-1,poldrack-single-stim,12,112304,0.0-11.0,a0738ccc-1d90-43d6-8209-f87a040a8106,,500,500,fixation,,<div class = centerbox><div class = fixation>+</div></div>,none,500,practice,,,,,,,,,,,1265,82,poldrack-categorize,13,114817,0.0-12.0,a0738ccc-1d90-43d6-8209-f87a040a8106,,1500,250,stim,,"<div class = centerbox><div class = stroop-stim style = ""color:red"">RED</div></div>","66,71,82",1500,practice,TRUE,82,500,congruent,red,red,,,,,-1,-1,poldrack-single-stim,14,115578,0.0-13.0,a0738ccc-1d90-43d6-8209-f87a040a8106,,500,500,fixation,,<div class = centerbox><div class = fixation>+</div></div>,none,500,practice,,,,,,,,,,,574,82,poldrack-categorize,15,118092,0.0-14.0,a0738ccc-1d90-43d6-8209-f87a040a8106,,1500,250,stim,,"<div class = centerbox><div class = stroop-stim style = ""color:red"">RED</div></div>","66,71,82",1500,practice,TRUE,82,500,congruent,red,red,,,,,-1,-1,poldrack-single-stim,16,118852,0.0-15.0,a0738ccc-1d90-43d6-8209-f87a040a8106,,500,500,fixation,,<div class = centerbox><div class = fixation>+</div></div>,none,500,practice,,,,,,,,,,,981,66,poldrack-categorize,17,121359,0.0-16.0,a0738ccc-1d90-43d6-8209-f87a040a8106,,1500,250,stim,,"<div class = centerbox><div class = stroop-stim style = ""color:blue"">GREEN</div></div>","66,71,82",1500,practice,TRUE,66,500,incongruent,blue,green,,,,,-1,-1,poldrack-single-stim,18,122120,0.0-17.0,a0738ccc-1d90-43d6-8209-f87a040a8106,,500,500,fixation,,<div class = centerbox><div class = fixation>+</div></div>,none,500,practice,,,,,,,,,,,433,71,poldrack-categorize,19,124633,0.0-18.0,a0738ccc-1d90-43d6-8209-f87a040a8106,,1500,250,stim,,"<div class = centerbox><div class = stroop-stim style = ""color:green"">GREEN</div></div>","66,71,82",1500,practice,TRUE,71,500,congruent,green,green,,,,,-1,-1,poldrack-single-stim,20,125388,0.0-19.0,a0738ccc-1d90-43d6-8209-f87a040a8106,,500,500,fixation,,<div class = centerbox><div class = fixation>+</div></div>,none,500,practice,,,,,,,,,,,597,71,poldrack-categorize,21,127901,0.0-20.0,a0738ccc-1d90-43d6-8209-f87a040a8106,,1500,250,stim,,"<div class = centerbox><div class = stroop-stim style = ""color:green"">GREEN</div></div>","66,71,82",1500,practice,TRUE,71,500,congruent,green,green,,,,,-1,-1,poldrack-single-stim,22,128659,0.0-21.0,a0738ccc-1d90-43d6-8209-f87a040a8106,,500,500,fixation,,<div class = centerbox><div class = fixation>+</div></div>,none,500,practice,,,,,,,,,,,1136,71,poldrack-categorize,23,131169,0.0-22.0,a0738ccc-1d90-43d6-8209-f87a040a8106,,1500,250,stim,,"<div class = centerbox><div class = stroop-stim style = ""color:green"">RED</div></div>","66,71,82",1500,practice,TRUE,71,500,incongruent,green,red,,,,,-1,-1,poldrack-single-stim,24,131929,0.0-23.0,a0738ccc-1d90-43d6-8209-f87a040a8106,,500,500,fixation,,<div class = centerbox><div class = fixation>+</div></div>,none,500,practice,,,,,,,,,,,942,71,poldrack-categorize,25,134443,0.0-24.0,a0738ccc-1d90-43d6-8209-f87a040a8106,,1500,250,stim,,"<div class = centerbox><div class = stroop-stim style = ""color:green"">RED</div></div>","66,71,82",1500,practice,TRUE,71,500,incongruent,green,red,,,,,-1,-1,poldrack-single-stim,26,135203,0.0-25.0,a0738ccc-1d90-43d6-8209-f87a040a8106,,500,500,fixation,,<div class = centerbox><div class = fixation>+</div></div>,none,500,practice,,,,,,,,,,,596,66,poldrack-categorize,27,137710,0.0-26.0,a0738ccc-1d90-43d6-8209-f87a040a8106,,1500,250,stim,,"<div class = centerbox><div class = stroop-stim style = ""color:blue"">RED</div></div>","66,71,82",1500,practice,TRUE,66,500,incongruent,blue,red,,,,,-1,-1,poldrack-single-stim,28,138471,0.0-27.0,a0738ccc-1d90-43d6-8209-f87a040a8106,,500,500,fixation,,<div class = centerbox><div class = fixation>+</div></div>,none,500,practice,,,,,,,,,,,480,82,poldrack-categorize,29,140984,0.0-28.0,a0738ccc-1d90-43d6-8209-f87a040a8106,,1500,250,stim,,"<div class = centerbox><div class = stroop-stim style = ""color:red"">BLUE</div></div>","66,71,82",1500,practice,TRUE,82,500,incongruent,red,blue,,,,,-1,-1,poldrack-single-stim,30,141745,0.0-29.0,a0738ccc-1d90-43d6-8209-f87a040a8106,,500,500,fixation,,<div class = centerbox><div class = fixation>+</div></div>,none,500,practice,,,,,,,,,,,1118,71,poldrack-categorize,31,144258,0.0-30.0,a0738ccc-1d90-43d6-8209-f87a040a8106,,1500,250,stim,,"<div class = centerbox><div class = stroop-stim style = ""color:green"">BLUE</div></div>","66,71,82",1500,practice,TRUE,71,500,incongruent,green,blue,,,,,-1,-1,poldrack-single-stim,32,145018,0.0-31.0,a0738ccc-1d90-43d6-8209-f87a040a8106,,500,500,fixation,,<div class = centerbox><div class = fixation>+</div></div>,none,500,practice,,,,,,,,,,,1236,66,poldrack-categorize,33,147532,0.0-32.0,a0738ccc-1d90-43d6-8209-f87a040a8106,,1500,250,stim,,"<div class = centerbox><div class = stroop-stim style = ""color:blue"">BLUE</div></div>","66,71,82",1500,practice,TRUE,66,500,congruent,blue,blue,,,,,-1,-1,poldrack-single-stim,34,148289,0.0-33.0,a0738ccc-1d90-43d6-8209-f87a040a8106,,500,500,fixation,,<div class = centerbox><div class = fixation>+</div></div>,none,500,practice,,,,,,,,,,,1048,82,poldrack-categorize,35,150800,0.0-34.0,a0738ccc-1d90-43d6-8209-f87a040a8106,,1500,250,stim,,"<div class = centerbox><div class = stroop-stim style = ""color:red"">GREEN</div></div>","66,71,82",1500,practice,TRUE,82,500,incongruent,red,green,,,,,-1,-1,poldrack-single-stim,36,151557,0.0-35.0,a0738ccc-1d90-43d6-8209-f87a040a8106,,500,500,fixation,,<div class = centerbox><div class = fixation>+</div></div>,none,500,practice,,,,,,,,,,,1108,66,poldrack-categorize,37,154068,0.0-36.0,a0738ccc-1d90-43d6-8209-f87a040a8106,,1500,250,stim,,"<div class = centerbox><div class = stroop-stim style = ""color:blue"">RED</div></div>","66,71,82",1500,practice,TRUE,66,500,incongruent,blue,red,,,,,-1,-1,poldrack-single-stim,38,154828,0.0-37.0,a0738ccc-1d90-43d6-8209-f87a040a8106,,500,500,fixation,,<div class = centerbox><div class = fixation>+</div></div>,none,500,practice,,,,,,,,,,,769,82,poldrack-categorize,39,157341,0.0-38.0,a0738ccc-1d90-43d6-8209-f87a040a8106,,1500,250,stim,,"<div class = centerbox><div class = stroop-stim style = ""color:red"">RED</div></div>","66,71,82",1500,practice,TRUE,82,500,congruent,red,red,,,,,-1,-1,poldrack-single-stim,40,158102,0.0-39.0,a0738ccc-1d90-43d6-8209-f87a040a8106,,500,500,fixation,,<div class = centerbox><div class = fixation>+</div></div>,none,500,practice,,,,,,,,,,,608,66,poldrack-categorize,41,160614,0.0-40.0,a0738ccc-1d90-43d6-8209-f87a040a8106,,1500,250,stim,,"<div class = centerbox><div class = stroop-stim style = ""color:blue"">BLUE</div></div>","66,71,82",1500,practice,TRUE,66,500,congruent,blue,blue,,,,,-1,-1,poldrack-single-stim,42,161368,0.0-41.0,a0738ccc-1d90-43d6-8209-f87a040a8106,,500,500,fixation,,<div class = centerbox><div class = fixation>+</div></div>,none,500,practice,,,,,,,,,,,649,82,poldrack-categorize,43,163874,0.0-42.0,a0738ccc-1d90-43d6-8209-f87a040a8106,,1500,250,stim,,"<div class = centerbox><div class = stroop-stim style = ""color:red"">RED</div></div>","66,71,82",1500,practice,TRUE,82,500,congruent,red,red,,,,,-1,-1,poldrack-single-stim,44,164630,0.0-43.0,a0738ccc-1d90-43d6-8209-f87a040a8106,,500,500,fixation,,<div class = centerbox><div class = fixation>+</div></div>,none,500,practice,,,,,,,,,,,706,71,poldrack-categorize,45,167133,0.0-44.0,a0738ccc-1d90-43d6-8209-f87a040a8106,,1500,250,stim,,"<div class = centerbox><div class = stroop-stim style = ""color:green"">GREEN</div></div>","66,71,82",1500,practice,TRUE,71,500,congruent,green,green,,,,,-1,-1,poldrack-single-stim,46,167890,0.0-45.0,a0738ccc-1d90-43d6-8209-f87a040a8106,,500,500,fixation,,<div class = centerbox><div class = fixation>+</div></div>,none,500,practice,,,,,,,,,,,530,71,poldrack-categorize,47,170401,0.0-46.0,a0738ccc-1d90-43d6-8209-f87a040a8106,,1500,250,stim,,"<div class = centerbox><div class = stroop-stim style = ""color:green"">GREEN</div></div>","66,71,82",1500,practice,TRUE,71,500,congruent,green,green,,,,,-1,-1,poldrack-single-stim,48,171162,0.0-47.0,a0738ccc-1d90-43d6-8209-f87a040a8106,,500,500,fixation,,<div class = centerbox><div class = fixation>+</div></div>,none,500,practice,,,,,,,,,,,738,66,poldrack-categorize,49,173675,0.0-48.0,a0738ccc-1d90-43d6-8209-f87a040a8106,,1500,250,stim,,"<div class = centerbox><div class = stroop-stim style = ""color:blue"">BLUE</div></div>","66,71,82",1500,practice,TRUE,66,500,congruent,blue,blue,,,,,-1,-1,poldrack-single-stim,50,174436,0.0-49.0,a0738ccc-1d90-43d6-8209-f87a040a8106,,500,500,fixation,,<div class = centerbox><div class = fixation>+</div></div>,none,500,practice,,,,,,,,,,,704,66,poldrack-categorize,51,176949,0.0-50.0,a0738ccc-1d90-43d6-8209-f87a040a8106,,1500,250,stim,,"<div class = centerbox><div class = stroop-stim style = ""color:blue"">BLUE</div></div>","66,71,82",1500,practice,TRUE,66,500,congruent,blue,blue,,,,,4465,13,poldrack-text,52,181669,0.0-52.0,a0738ccc-1d90-43d6-8209-f87a040a8106,<div class = centerbox><p class = center-block-text>We will now start the test. Respond exactly like you did during practice.</p><p class = center-block-text>Press <strong>enter</strong> to begin the test.</p></div>,4465,1000,test_intro,,,,,,,,,,,,,,,,-1,-1,poldrack-single-stim,53,183178,0.0-53.0,a0738ccc-1d90-43d6-8209-f87a040a8106,,500,500,fixation,,<div class = centerbox><div class = fixation>+</div></div>,none,500,test,,,,,,,,,,,829,71,poldrack-categorize,54,185685,0.0-54.0,a0738ccc-1d90-43d6-8209-f87a040a8106,,1500,250,stim,,"<div class = centerbox><div class = stroop-stim style = ""color:green"">GREEN</div></div>","66,71,82",1500,test,TRUE,71,500,congruent,green,green,,,,,-1,-1,poldrack-single-stim,55,186439,0.0-55.0,a0738ccc-1d90-43d6-8209-f87a040a8106,,500,500,fixation,,<div class = centerbox><div class = fixation>+</div></div>,none,500,test,,,,,,,,,,,628,71,poldrack-categorize,56,188953,0.0-56.0,a0738ccc-1d90-43d6-8209-f87a040a8106,,1500,250,stim,,"<div class = centerbox><div class = stroop-stim style = ""color:green"">GREEN</div></div>","66,71,82",1500,test,TRUE,71,500,congruent,green,green,,,,,-1,-1,poldrack-single-stim,57,189711,0.0-57.0,a0738ccc-1d90-43d6-8209-f87a040a8106,,500,500,fixation,,<div class = centerbox><div class = fixation>+</div></div>,none,500,test,,,,,,,,,,,919,66,poldrack-categorize,58,192215,0.0-58.0,a0738ccc-1d90-43d6-8209-f87a040a8106,,1500,250,stim,,"<div class = centerbox><div class = stroop-stim style = ""color:blue"">RED</div></div>","66,71,82",1500,test,TRUE,66,500,incongruent,blue,red,,,,,-1,-1,poldrack-single-stim,59,192974,0.0-59.0,a0738ccc-1d90-43d6-8209-f87a040a8106,,500,500,fixation,,<div class = centerbox><div class = fixation>+</div></div>,none,500,test,,,,,,,,,,,699,82,poldrack-categorize,60,195489,0.0-60.0,a0738ccc-1d90-43d6-8209-f87a040a8106,,1500,250,stim,,"<div class = centerbox><div class = stroop-stim style = ""color:red"">RED</div></div>","66,71,82",1500,test,TRUE,82,500,congruent,red,red,,,,,-1,-1,poldrack-single-stim,61,196249,0.0-61.0,a0738ccc-1d90-43d6-8209-f87a040a8106,,500,500,fixation,,<div class = centerbox><div class = fixation>+</div></div>,none,500,test,,,,,,,,,,,906,71,poldrack-categorize,62,198762,0.0-62.0,a0738ccc-1d90-43d6-8209-f87a040a8106,,1500,250,stim,,"<div class = centerbox><div class = stroop-stim style = ""color:green"">BLUE</div></div>","66,71,82",1500,test,TRUE,71,500,incongruent,green,blue,,,,,-1,-1,poldrack-single-stim,63,199523,0.0-63.0,a0738ccc-1d90-43d6-8209-f87a040a8106,,500,500,fixation,,<div class = centerbox><div class = fixation>+</div></div>,none,500,test,,,,,,,,,,,816,66,poldrack-categorize,64,202036,0.0-64.0,a0738ccc-1d90-43d6-8209-f87a040a8106,,1500,250,stim,,"<div class = centerbox><div class = stroop-stim style = ""color:blue"">BLUE</div></div>","66,71,82",1500,test,TRUE,66,500,congruent,blue,blue,,,,,-1,-1,poldrack-single-stim,65,202797,0.0-65.0,a0738ccc-1d90-43d6-8209-f87a040a8106,,500,500,fixation,,<div class = centerbox><div class = fixation>+</div></div>,none,500,test,,,,,,,,,,,597,66,poldrack-categorize,66,205310,0.0-66.0,a0738ccc-1d90-43d6-8209-f87a040a8106,,1500,250,stim,,"<div class = centerbox><div class = stroop-stim style = ""color:blue"">BLUE</div></div>","66,71,82",1500,test,TRUE,66,500,congruent,blue,blue,,,,,-1,-1,poldrack-single-stim,67,206070,0.0-67.0,a0738ccc-1d90-43d6-8209-f87a040a8106,,500,500,fixation,,<div class = centerbox><div class = fixation>+</div></div>,none,500,test,,,,,,,,,,,1172,66,poldrack-categorize,68,208584,0.0-68.0,a0738ccc-1d90-43d6-8209-f87a040a8106,,1500,250,stim,,"<div class = centerbox><div class = stroop-stim style = ""color:blue"">GREEN</div></div>","66,71,82",1500,test,TRUE,66,500,incongruent,blue,green,,,,,-1,-1,poldrack-single-stim,69,209344,0.0-69.0,a0738ccc-1d90-43d6-8209-f87a040a8106,,500,500,fixation,,<div class = centerbox><div class = fixation>+</div></div>,none,500,test,,,,,,,,,,,673,82,poldrack-categorize,70,211857,0.0-70.0,a0738ccc-1d90-43d6-8209-f87a040a8106,,1500,250,stim,,"<div class = centerbox><div class = stroop-stim style = ""color:red"">RED</div></div>","66,71,82",1500,test,TRUE,82,500,congruent,red,red,,,,,-1,-1,poldrack-single-stim,71,212618,0.0-71.0,a0738ccc-1d90-43d6-8209-f87a040a8106,,500,500,fixation,,<div class = centerbox><div class = fixation>+</div></div>,none,500,test,,,,,,,,,,,527,82,poldrack-categorize,72,215131,0.0-72.0,a0738ccc-1d90-43d6-8209-f87a040a8106,,1500,250,stim,,"<div class = centerbox><div class = stroop-stim style = ""color:red"">RED</div></div>","66,71,82",1500,test,TRUE,82,500,congruent,red,red,,,,,-1,-1,poldrack-single-stim,73,215892,0.0-73.0,a0738ccc-1d90-43d6-8209-f87a040a8106,,500,500,fixation,,<div class = centerbox><div class = fixation>+</div></div>,none,500,test,,,,,,,,,,,1005,71,poldrack-categorize,74,218407,0.0-74.0,a0738ccc-1d90-43d6-8209-f87a040a8106,,1500,250,stim,,"<div class = centerbox><div class = stroop-stim style = ""color:green"">BLUE</div></div>","66,71,82",1500,test,TRUE,71,500,incongruent,green,blue,,,,,-1,-1,poldrack-single-stim,75,219164,0.0-75.0,a0738ccc-1d90-43d6-8209-f87a040a8106,,500,500,fixation,,<div class = centerbox><div class = fixation>+</div></div>,none,500,test,,,,,,,,,,,705,82,poldrack-categorize,76,221670,0.0-76.0,a0738ccc-1d90-43d6-8209-f87a040a8106,,1500,250,stim,,"<div class = centerbox><div class = stroop-stim style = ""color:red"">BLUE</div></div>","66,71,82",1500,test,TRUE,82,500,incongruent,red,blue,,,,,-1,-1,poldrack-single-stim,77,222428,0.0-77.0,a0738ccc-1d90-43d6-8209-f87a040a8106,,500,500,fixation,,<div class = centerbox><div class = fixation>+</div></div>,none,500,test,,,,,,,,,,,637,82,poldrack-categorize,78,224941,0.0-78.0,a0738ccc-1d90-43d6-8209-f87a040a8106,,1500,250,stim,,"<div class = centerbox><div class = stroop-stim style = ""color:red"">RED</div></div>","66,71,82",1500,test,TRUE,82,500,congruent,red,red,,,,,-1,-1,poldrack-single-stim,79,225702,0.0-79.0,a0738ccc-1d90-43d6-8209-f87a040a8106,,500,500,fixation,,<div class = centerbox><div class = fixation>+</div></div>,none,500,test,,,,,,,,,,,499,71,poldrack-categorize,80,228211,0.0-80.0,a0738ccc-1d90-43d6-8209-f87a040a8106,,1500,250,stim,,"<div class = centerbox><div class = stroop-stim style = ""color:green"">GREEN</div></div>","66,71,82",1500,test,TRUE,71,500,congruent,green,green,,,,,-1,-1,poldrack-single-stim,81,228969,0.0-81.0,a0738ccc-1d90-43d6-8209-f87a040a8106,,500,500,fixation,,<div class = centerbox><div class = fixation>+</div></div>,none,500,test,,,,,,,,,,,598,66,poldrack-categorize,82,231479,0.0-82.0,a0738ccc-1d90-43d6-8209-f87a040a8106,,1500,250,stim,,"<div class = centerbox><div class = stroop-stim style = ""color:blue"">BLUE</div></div>","66,71,82",1500,test,TRUE,66,500,congruent,blue,blue,,,,,-1,-1,poldrack-single-stim,83,232237,0.0-83.0,a0738ccc-1d90-43d6-8209-f87a040a8106,,500,500,fixation,,<div class = centerbox><div class = fixation>+</div></div>,none,500,test,,,,,,,,,,,667,71,poldrack-categorize,84,234750,0.0-84.0,a0738ccc-1d90-43d6-8209-f87a040a8106,,1500,250,stim,,"<div class = centerbox><div class = stroop-stim style = ""color:green"">GREEN</div></div>","66,71,82",1500,test,TRUE,71,500,congruent,green,green,,,,,-1,-1,poldrack-single-stim,85,235511,0.0-85.0,a0738ccc-1d90-43d6-8209-f87a040a8106,,500,500,fixation,,<div class = centerbox><div class = fixation>+</div></div>,none,500,test,,,,,,,,,,,440,82,poldrack-categorize,86,238024,0.0-86.0,a0738ccc-1d90-43d6-8209-f87a040a8106,,1500,250,stim,,"<div class = centerbox><div class = stroop-stim style = ""color:red"">GREEN</div></div>","66,71,82",1500,test,TRUE,82,500,incongruent,red,green,,,,,-1,-1,poldrack-single-stim,87,238785,0.0-87.0,a0738ccc-1d90-43d6-8209-f87a040a8106,,500,500,fixation,,<div class = centerbox><div class = fixation>+</div></div>,none,500,test,,,,,,,,,,,518,82,poldrack-categorize,88,241298,0.0-88.0,a0738ccc-1d90-43d6-8209-f87a040a8106,,1500,250,stim,,"<div class = centerbox><div class = stroop-stim style = ""color:red"">RED</div></div>","66,71,82",1500,test,TRUE,82,500,congruent,red,red,,,,,-1,-1,poldrack-single-stim,89,242055,0.0-89.0,a0738ccc-1d90-43d6-8209-f87a040a8106,,500,500,fixation,,<div class = centerbox><div class = fixation>+</div></div>,none,500,test,,,,,,,,,,,471,71,poldrack-categorize,90,244566,0.0-90.0,a0738ccc-1d90-43d6-8209-f87a040a8106,,1500,250,stim,,"<div class = centerbox><div class = stroop-stim style = ""color:green"">RED</div></div>","66,71,82",1500,test,TRUE,71,500,incongruent,green,red,,,,,-1,-1,poldrack-single-stim,91,245327,0.0-91.0,a0738ccc-1d90-43d6-8209-f87a040a8106,,500,500,fixation,,<div class = centerbox><div class = fixation>+</div></div>,none,500,test,,,,,,,,,,,955,66,poldrack-categorize,92,247840,0.0-92.0,a0738ccc-1d90-43d6-8209-f87a040a8106,,1500,250,stim,,"<div class = centerbox><div class = stroop-stim style = ""color:blue"">BLUE</div></div>","66,71,82",1500,test,TRUE,66,500,congruent,blue,blue,,,,,-1,-1,poldrack-single-stim,93,248600,0.0-93.0,a0738ccc-1d90-43d6-8209-f87a040a8106,,500,500,fixation,,<div class = centerbox><div class = fixation>+</div></div>,none,500,test,,,,,,,,,,,502,82,poldrack-categorize,94,251113,0.0-94.0,a0738ccc-1d90-43d6-8209-f87a040a8106,,1500,250,stim,,"<div class = centerbox><div class = stroop-stim style = ""color:red"">RED</div></div>","66,71,82",1500,test,TRUE,82,500,congruent,red,red,,,,,-1,-1,poldrack-single-stim,95,251874,0.0-95.0,a0738ccc-1d90-43d6-8209-f87a040a8106,,500,500,fixation,,<div class = centerbox><div class = fixation>+</div></div>,none,500,test,,,,,,,,,,,451,71,poldrack-categorize,96,254386,0.0-96.0,a0738ccc-1d90-43d6-8209-f87a040a8106,,1500,250,stim,,"<div class = centerbox><div class = stroop-stim style = ""color:green"">GREEN</div></div>","66,71,82",1500,test,TRUE,71,500,congruent,green,green,,,,,-1,-1,poldrack-single-stim,97,255142,0.0-97.0,a0738ccc-1d90-43d6-8209-f87a040a8106,,500,500,fixation,,<div class = centerbox><div class = fixation>+</div></div>,none,500,test,,,,,,,,,,,647,66,poldrack-categorize,98,257655,0.0-98.0,a0738ccc-1d90-43d6-8209-f87a040a8106,,1500,250,stim,,"<div class = centerbox><div class = stroop-stim style = ""color:blue"">BLUE</div></div>","66,71,82",1500,test,TRUE,66,500,congruent,blue,blue,,,,,-1,-1,poldrack-single-stim,99,258416,0.0-99.0,a0738ccc-1d90-43d6-8209-f87a040a8106,,500,500,fixation,,<div class = centerbox><div class = fixation>+</div></div>,none,500,test,,,,,,,,,,,638,66,poldrack-categorize,100,260929,0.0-100.0,a0738ccc-1d90-43d6-8209-f87a040a8106,,1500,250,stim,,"<div class = centerbox><div class = stroop-stim style = ""color:blue"">BLUE</div></div>","66,71,82",1500,test,TRUE,66,500,congruent,blue,blue,,,,,-1,-1,poldrack-single-stim,101,261684,0.0-101.0,a0738ccc-1d90-43d6-8209-f87a040a8106,,500,500,fixation,,<div class = centerbox><div class = fixation>+</div></div>,none,500,test,,,,,,,,,,,858,66,poldrack-categorize,102,264197,0.0-102.0,a0738ccc-1d90-43d6-8209-f87a040a8106,,1500,250,stim,,"<div class = centerbox><div class = stroop-stim style = ""color:blue"">GREEN</div></div>","66,71,82",1500,test,TRUE,66,500,incongruent,blue,green,,,,,-1,-1,poldrack-single-stim,103,264957,0.0-103.0,a0738ccc-1d90-43d6-8209-f87a040a8106,,500,500,fixation,,<div class = centerbox><div class = fixation>+</div></div>,none,500,test,,,,,,,,,,,616,82,poldrack-categorize,104,267471,0.0-104.0,a0738ccc-1d90-43d6-8209-f87a040a8106,,1500,250,stim,,"<div class = centerbox><div class = stroop-stim style = ""color:red"">RED</div></div>","66,71,82",1500,test,TRUE,82,500,congruent,red,red,,,,,-1,-1,poldrack-single-stim,105,268228,0.0-105.0,a0738ccc-1d90-43d6-8209-f87a040a8106,,500,500,fixation,,<div class = centerbox><div class = fixation>+</div></div>,none,500,test,,,,,,,,,,,699,82,poldrack-categorize,106,270739,0.0-106.0,a0738ccc-1d90-43d6-8209-f87a040a8106,,1500,250,stim,,"<div class = centerbox><div class = stroop-stim style = ""color:red"">GREEN</div></div>","66,71,82",1500,test,TRUE,82,500,incongruent,red,green,,,,,-1,-1,poldrack-single-stim,107,271499,0.0-107.0,a0738ccc-1d90-43d6-8209-f87a040a8106,,500,500,fixation,,<div class = centerbox><div class = fixation>+</div></div>,none,500,test,,,,,,,,,,,697,71,poldrack-categorize,108,274012,0.0-108.0,a0738ccc-1d90-43d6-8209-f87a040a8106,,1500,250,stim,,"<div class = centerbox><div class = stroop-stim style = ""color:green"">GREEN</div></div>","66,71,82",1500,test,TRUE,71,500,congruent,green,green,,,,,-1,-1,poldrack-single-stim,109,274773,0.0-109.0,a0738ccc-1d90-43d6-8209-f87a040a8106,,500,500,fixation,,<div class = centerbox><div class = fixation>+</div></div>,none,500,test,,,,,,,,,,,695,66,poldrack-categorize,110,277286,0.0-110.0,a0738ccc-1d90-43d6-8209-f87a040a8106,,1500,250,stim,,"<div class = centerbox><div class = stroop-stim style = ""color:blue"">BLUE</div></div>","66,71,82",1500,test,TRUE,66,500,congruent,blue,blue,,,,,-1,-1,poldrack-single-stim,111,278047,0.0-111.0,a0738ccc-1d90-43d6-8209-f87a040a8106,,500,500,fixation,,<div class = centerbox><div class = fixation>+</div></div>,none,500,test,,,,,,,,,,,941,66,poldrack-categorize,112,280554,0.0-112.0,a0738ccc-1d90-43d6-8209-f87a040a8106,,1500,250,stim,,"<div class = centerbox><div class = stroop-stim style = ""color:green"">BLUE</div></div>","66,71,82",1500,test,FALSE,71,500,incongruent,green,blue,,,,,-1,-1,poldrack-single-stim,113,281315,0.0-113.0,a0738ccc-1d90-43d6-8209-f87a040a8106,,500,500,fixation,,<div class = centerbox><div class = fixation>+</div></div>,none,500,test,,,,,,,,,,,-1,-1,poldrack-categorize,114,283828,0.0-114.0,a0738ccc-1d90-43d6-8209-f87a040a8106,,1500,250,stim,,"<div class = centerbox><div class = stroop-stim style = ""color:red"">BLUE</div></div>","66,71,82",1500,test,FALSE,82,500,incongruent,red,blue,,,,,-1,-1,poldrack-single-stim,115,284588,0.0-115.0,a0738ccc-1d90-43d6-8209-f87a040a8106,,500,500,fixation,,<div class = centerbox><div class = fixation>+</div></div>,none,500,test,,,,,,,,,,,1351,66,poldrack-categorize,116,287102,0.0-116.0,a0738ccc-1d90-43d6-8209-f87a040a8106,,1500,250,stim,,"<div class = centerbox><div class = stroop-stim style = ""color:green"">BLUE</div></div>","66,71,82",1500,test,FALSE,71,500,incongruent,green,blue,,,,,-1,-1,poldrack-single-stim,117,287862,0.0-117.0,a0738ccc-1d90-43d6-8209-f87a040a8106,,500,500,fixation,,<div class = centerbox><div class = fixation>+</div></div>,none,500,test,,,,,,,,,,,581,71,poldrack-categorize,118,290375,0.0-118.0,a0738ccc-1d90-43d6-8209-f87a040a8106,,1500,250,stim,,"<div class = centerbox><div class = stroop-stim style = ""color:green"">GREEN</div></div>","66,71,82",1500,test,TRUE,71,500,congruent,green,green,,,,,-1,-1,poldrack-single-stim,119,291136,0.0-119.0,a0738ccc-1d90-43d6-8209-f87a040a8106,,500,500,fixation,,<div class = centerbox><div class = fixation>+</div></div>,none,500,test,,,,,,,,,,,1003,66,poldrack-categorize,120,293649,0.0-120.0,a0738ccc-1d90-43d6-8209-f87a040a8106,,1500,250,stim,,"<div class = centerbox><div class = stroop-stim style = ""color:blue"">RED</div></div>","66,71,82",1500,test,TRUE,66,500,incongruent,blue,red,,,,,-1,-1,poldrack-single-stim,121,294410,0.0-121.0,a0738ccc-1d90-43d6-8209-f87a040a8106,,500,500,fixation,,<div class = centerbox><div class = fixation>+</div></div>,none,500,test,,,,,,,,,,,747,66,poldrack-categorize,122,296922,0.0-122.0,a0738ccc-1d90-43d6-8209-f87a040a8106,,1500,250,stim,,"<div class = centerbox><div class = stroop-stim style = ""color:blue"">RED</div></div>","66,71,82",1500,test,TRUE,66,500,incongruent,blue,red,,,,,-1,-1,poldrack-single-stim,123,297678,0.0-123.0,a0738ccc-1d90-43d6-8209-f87a040a8106,,500,500,fixation,,<div class = centerbox><div class = fixation>+</div></div>,none,500,test,,,,,,,,,,,789,82,poldrack-categorize,124,300188,0.0-124.0,a0738ccc-1d90-43d6-8209-f87a040a8106,,1500,250,stim,,"<div class = centerbox><div class = stroop-stim style = ""color:red"">RED</div></div>","66,71,82",1500,test,TRUE,82,500,congruent,red,red,,,,,-1,-1,poldrack-single-stim,125,300946,0.0-125.0,a0738ccc-1d90-43d6-8209-f87a040a8106,,500,500,fixation,,<div class = centerbox><div class = fixation>+</div></div>,none,500,test,,,,,,,,,,,681,66,poldrack-categorize,126,303459,0.0-126.0,a0738ccc-1d90-43d6-8209-f87a040a8106,,1500,250,stim,,"<div class = centerbox><div class = stroop-stim style = ""color:blue"">BLUE</div></div>","66,71,82",1500,test,TRUE,66,500,congruent,blue,blue,,,,,-1,-1,poldrack-single-stim,127,304219,0.0-127.0,a0738ccc-1d90-43d6-8209-f87a040a8106,,500,500,fixation,,<div class = centerbox><div class = fixation>+</div></div>,none,500,test,,,,,,,,,,,814,71,poldrack-categorize,128,306732,0.0-128.0,a0738ccc-1d90-43d6-8209-f87a040a8106,,1500,250,stim,,"<div class = centerbox><div class = stroop-stim style = ""color:red"">GREEN</div></div>","66,71,82",1500,test,FALSE,82,500,incongruent,red,green,,,,,-1,-1,poldrack-single-stim,129,307493,0.0-129.0,a0738ccc-1d90-43d6-8209-f87a040a8106,,500,500,fixation,,<div class = centerbox><div class = fixation>+</div></div>,none,500,test,,,,,,,,,,,732,71,poldrack-categorize,130,310006,0.0-130.0,a0738ccc-1d90-43d6-8209-f87a040a8106,,1500,250,stim,,"<div class = centerbox><div class = stroop-stim style = ""color:green"">GREEN</div></div>","66,71,82",1500,test,TRUE,71,500,congruent,green,green,,,,,-1,-1,poldrack-single-stim,131,310768,0.0-131.0,a0738ccc-1d90-43d6-8209-f87a040a8106,,500,500,fixation,,<div class = centerbox><div class = fixation>+</div></div>,none,500,test,,,,,,,,,,,617,82,poldrack-categorize,132,313280,0.0-132.0,a0738ccc-1d90-43d6-8209-f87a040a8106,,1500,250,stim,,"<div class = centerbox><div class = stroop-stim style = ""color:red"">RED</div></div>","66,71,82",1500,test,TRUE,82,500,congruent,red,red,,,,,-1,-1,poldrack-single-stim,133,314041,0.0-133.0,a0738ccc-1d90-43d6-8209-f87a040a8106,,500,500,fixation,,<div class = centerbox><div class = fixation>+</div></div>,none,500,test,,,,,,,,,,,833,71,poldrack-categorize,134,316548,0.0-134.0,a0738ccc-1d90-43d6-8209-f87a040a8106,,1500,250,stim,,"<div class = centerbox><div class = stroop-stim style = ""color:green"">GREEN</div></div>","66,71,82",1500,test,TRUE,71,500,congruent,green,green,,,,,-1,-1,poldrack-single-stim,135,317308,0.0-135.0,a0738ccc-1d90-43d6-8209-f87a040a8106,,500,500,fixation,,<div class = centerbox><div class = fixation>+</div></div>,none,500,test,,,,,,,,,,,893,66,poldrack-categorize,136,319822,0.0-136.0,a0738ccc-1d90-43d6-8209-f87a040a8106,,1500,250,stim,,"<div class = centerbox><div class = stroop-stim style = ""color:blue"">GREEN</div></div>","66,71,82",1500,test,TRUE,66,500,incongruent,blue,green,,,,,-1,-1,poldrack-single-stim,137,320582,0.0-137.0,a0738ccc-1d90-43d6-8209-f87a040a8106,,500,500,fixation,,<div class = centerbox><div class = fixation>+</div></div>,none,500,test,,,,,,,,,,,602,82,poldrack-categorize,138,323095,0.0-138.0,a0738ccc-1d90-43d6-8209-f87a040a8106,,1500,250,stim,,"<div class = centerbox><div class = stroop-stim style = ""color:red"">RED</div></div>","66,71,82",1500,test,TRUE,82,500,congruent,red,red,,,,,-1,-1,poldrack-single-stim,139,323856,0.0-139.0,a0738ccc-1d90-43d6-8209-f87a040a8106,,500,500,fixation,,<div class = centerbox><div class = fixation>+</div></div>,none,500,test,,,,,,,,,,,1112,71,poldrack-categorize,140,326369,0.0-140.0,a0738ccc-1d90-43d6-8209-f87a040a8106,,1500,250,stim,,"<div class = centerbox><div class = stroop-stim style = ""color:green"">RED</div></div>","66,71,82",1500,test,TRUE,71,500,incongruent,green,red,,,,,-1,-1,poldrack-single-stim,141,327130,0.0-141.0,a0738ccc-1d90-43d6-8209-f87a040a8106,,500,500,fixation,,<div class = centerbox><div class = fixation>+</div></div>,none,500,test,,,,,,,,,,,975,82,poldrack-categorize,142,329643,0.0-142.0,a0738ccc-1d90-43d6-8209-f87a040a8106,,1500,250,stim,,"<div class = centerbox><div class = stroop-stim style = ""color:red"">BLUE</div></div>","66,71,82",1500,test,TRUE,82,500,incongruent,red,blue,,,,,-1,-1,poldrack-single-stim,143,330404,0.0-143.0,a0738ccc-1d90-43d6-8209-f87a040a8106,,500,500,fixation,,<div class = centerbox><div class = fixation>+</div></div>,none,500,test,,,,,,,,,,,548,71,poldrack-categorize,144,332913,0.0-144.0,a0738ccc-1d90-43d6-8209-f87a040a8106,,1500,250,stim,,"<div class = centerbox><div class = stroop-stim style = ""color:green"">RED</div></div>","66,71,82",1500,test,TRUE,71,500,incongruent,green,red,,,,,-1,-1,poldrack-single-stim,145,333671,0.0-145.0,a0738ccc-1d90-43d6-8209-f87a040a8106,,500,500,fixation,,<div class = centerbox><div class = fixation>+</div></div>,none,500,test,,,,,,,,,,,1353,82,poldrack-categorize,146,336185,0.0-146.0,a0738ccc-1d90-43d6-8209-f87a040a8106,,1500,250,stim,,"<div class = centerbox><div class = stroop-stim style = ""color:red"">RED</div></div>","66,71,82",1500,test,TRUE,82,500,congruent,red,red,,,,,-1,-1,poldrack-single-stim,147,336939,0.0-147.0,a0738ccc-1d90-43d6-8209-f87a040a8106,,500,500,fixation,,<div class = centerbox><div class = fixation>+</div></div>,none,500,test,,,,,,,,,,,916,66,poldrack-categorize,148,339453,0.0-148.0,a0738ccc-1d90-43d6-8209-f87a040a8106,,1500,250,stim,,"<div class = centerbox><div class = stroop-stim style = ""color:red"">BLUE</div></div>","66,71,82",1500,test,FALSE,82,500,incongruent,red,blue,,,,,-1,-1,poldrack-single-stim,149,340213,0.0-149.0,a0738ccc-1d90-43d6-8209-f87a040a8106,,500,500,fixation,,<div class = centerbox><div class = fixation>+</div></div>,none,500,test,,,,,,,,,,,801,71,poldrack-categorize,150,342727,0.0-150.0,a0738ccc-1d90-43d6-8209-f87a040a8106,,1500,250,stim,,"<div class = centerbox><div class = stroop-stim style = ""color:green"">GREEN</div></div>","66,71,82",1500,test,TRUE,71,500,congruent,green,green,,,,,-1,-1,poldrack-single-stim,151,343481,0.0-151.0,a0738ccc-1d90-43d6-8209-f87a040a8106,,500,500,fixation,,<div class = centerbox><div class = fixation>+</div></div>,none,500,test,,,,,,,,,,,885,66,poldrack-categorize,152,345994,0.0-152.0,a0738ccc-1d90-43d6-8209-f87a040a8106,,1500,250,stim,,"<div class = centerbox><div class = stroop-stim style = ""color:green"">BLUE</div></div>","66,71,82",1500,test,FALSE,71,500,incongruent,green,blue,,,,,-1,-1,poldrack-single-stim,153,346755,0.0-153.0,a0738ccc-1d90-43d6-8209-f87a040a8106,,500,500,fixation,,<div class = centerbox><div class = fixation>+</div></div>,none,500,test,,,,,,,,,,,1251,82,poldrack-categorize,154,349268,0.0-154.0,a0738ccc-1d90-43d6-8209-f87a040a8106,,1500,250,stim,,"<div class = centerbox><div class = stroop-stim style = ""color:red"">GREEN</div></div>","66,71,82",1500,test,TRUE,82,500,incongruent,red,green,,,,,-1,-1,poldrack-single-stim,155,350029,0.0-155.0,a0738ccc-1d90-43d6-8209-f87a040a8106,,500,500,fixation,,<div class = centerbox><div class = fixation>+</div></div>,none,500,test,,,,,,,,,,,602,66,poldrack-categorize,156,352542,0.0-156.0,a0738ccc-1d90-43d6-8209-f87a040a8106,,1500,250,stim,,"<div class = centerbox><div class = stroop-stim style = ""color:blue"">BLUE</div></div>","66,71,82",1500,test,TRUE,66,500,congruent,blue,blue,,,,,-1,-1,poldrack-single-stim,157,353297,0.0-157.0,a0738ccc-1d90-43d6-8209-f87a040a8106,,500,500,fixation,,<div class = centerbox><div class = fixation>+</div></div>,none,500,test,,,,,,,,,,,782,66,poldrack-categorize,158,355810,0.0-158.0,a0738ccc-1d90-43d6-8209-f87a040a8106,,1500,250,stim,,"<div class = centerbox><div class = stroop-stim style = ""color:blue"">RED</div></div>","66,71,82",1500,test,TRUE,66,500,incongruent,blue,red,,,,,-1,-1,poldrack-single-stim,159,356570,0.0-159.0,a0738ccc-1d90-43d6-8209-f87a040a8106,,500,500,fixation,,<div class = centerbox><div class = fixation>+</div></div>,none,500,test,,,,,,,,,,,1213,66,poldrack-categorize,160,359084,0.0-160.0,a0738ccc-1d90-43d6-8209-f87a040a8106,,1500,250,stim,,"<div class = centerbox><div class = stroop-stim style = ""color:blue"">GREEN</div></div>","66,71,82",1500,test,TRUE,66,500,incongruent,blue,green,,,,,-1,-1,poldrack-single-stim,161,359844,0.0-161.0,a0738ccc-1d90-43d6-8209-f87a040a8106,,500,500,fixation,,<div class = centerbox><div class = fixation>+</div></div>,none,500,test,,,,,,,,,,,644,71,poldrack-categorize,162,362358,0.0-162.0,a0738ccc-1d90-43d6-8209-f87a040a8106,,1500,250,stim,,"<div class = centerbox><div class = stroop-stim style = ""color:green"">GREEN</div></div>","66,71,82",1500,test,TRUE,71,500,congruent,green,green,,,,,-1,-1,poldrack-single-stim,163,363118,0.0-163.0,a0738ccc-1d90-43d6-8209-f87a040a8106,,500,500,fixation,,<div class = centerbox><div class = fixation>+</div></div>,none,500,test,,,,,,,,,,,1151,66,poldrack-categorize,164,365630,0.0-164.0,a0738ccc-1d90-43d6-8209-f87a040a8106,,1500,250,stim,,"<div class = centerbox><div class = stroop-stim style = ""color:blue"">GREEN</div></div>","66,71,82",1500,test,TRUE,66,500,incongruent,blue,green,,,,,-1,-1,poldrack-single-stim,165,366386,0.0-165.0,a0738ccc-1d90-43d6-8209-f87a040a8106,,500,500,fixation,,<div class = centerbox><div class = fixation>+</div></div>,none,500,test,,,,,,,,,,,635,82,poldrack-categorize,166,368899,0.0-166.0,a0738ccc-1d90-43d6-8209-f87a040a8106,,1500,250,stim,,"<div class = centerbox><div class = stroop-stim style = ""color:red"">RED</div></div>","66,71,82",1500,test,TRUE,82,500,congruent,red,red,,,,,-1,-1,poldrack-single-stim,167,369660,0.0-167.0,a0738ccc-1d90-43d6-8209-f87a040a8106,,500,500,fixation,,<div class = centerbox><div class = fixation>+</div></div>,none,500,test,,,,,,,,,,,882,71,poldrack-categorize,168,372173,0.0-168.0,a0738ccc-1d90-43d6-8209-f87a040a8106,,1500,250,stim,,"<div class = centerbox><div class = stroop-stim style = ""color:green"">RED</div></div>","66,71,82",1500,test,TRUE,71,500,incongruent,green,red,,,,,-1,-1,poldrack-single-stim,169,372933,0.0-169.0,a0738ccc-1d90-43d6-8209-f87a040a8106,,500,500,fixation,,<div class = centerbox><div class = fixation>+</div></div>,none,500,test,,,,,,,,,,,1026,66,poldrack-categorize,170,375441,0.0-170.0,a0738ccc-1d90-43d6-8209-f87a040a8106,,1500,250,stim,,"<div class = centerbox><div class = stroop-stim style = ""color:blue"">GREEN</div></div>","66,71,82",1500,test,TRUE,66,500,incongruent,blue,green,,,,,-1,-1,poldrack-single-stim,171,376201,0.0-171.0,a0738ccc-1d90-43d6-8209-f87a040a8106,,500,500,fixation,,<div class = centerbox><div class = fixation>+</div></div>,none,500,test,,,,,,,,,,,875,71,poldrack-categorize,172,378715,0.0-172.0,a0738ccc-1d90-43d6-8209-f87a040a8106,,1500,250,stim,,"<div class = centerbox><div class = stroop-stim style = ""color:green"">RED</div></div>","66,71,82",1500,test,TRUE,71,500,incongruent,green,red,,,,,-1,-1,poldrack-single-stim,173,379474,0.0-173.0,a0738ccc-1d90-43d6-8209-f87a040a8106,,500,500,fixation,,<div class = centerbox><div class = fixation>+</div></div>,none,500,test,,,,,,,,,,,849,82,poldrack-categorize,174,381988,0.0-174.0,a0738ccc-1d90-43d6-8209-f87a040a8106,,1500,250,stim,,"<div class = centerbox><div class = stroop-stim style = ""color:red"">BLUE</div></div>","66,71,82",1500,test,TRUE,82,500,incongruent,red,blue,,,,,-1,-1,poldrack-single-stim,175,382749,0.0-175.0,a0738ccc-1d90-43d6-8209-f87a040a8106,,500,500,fixation,,<div class = centerbox><div class = fixation>+</div></div>,none,500,test,,,,,,,,,,,848,66,poldrack-categorize,176,385262,0.0-176.0,a0738ccc-1d90-43d6-8209-f87a040a8106,,1500,250,stim,,"<div class = centerbox><div class = stroop-stim style = ""color:blue"">BLUE</div></div>","66,71,82",1500,test,TRUE,66,500,congruent,blue,blue,,,,,-1,-1,poldrack-single-stim,177,386023,0.0-177.0,a0738ccc-1d90-43d6-8209-f87a040a8106,,500,500,fixation,,<div class = centerbox><div class = fixation>+</div></div>,none,500,test,,,,,,,,,,,885,82,poldrack-categorize,178,388536,0.0-178.0,a0738ccc-1d90-43d6-8209-f87a040a8106,,1500,250,stim,,"<div class = centerbox><div class = stroop-stim style = ""color:red"">BLUE</div></div>","66,71,82",1500,test,TRUE,82,500,incongruent,red,blue,,,,,-1,-1,poldrack-single-stim,179,389291,0.0-179.0,a0738ccc-1d90-43d6-8209-f87a040a8106,,500,500,fixation,,<div class = centerbox><div class = fixation>+</div></div>,none,500,test,,,,,,,,,,,731,71,poldrack-categorize,180,391801,0.0-180.0,a0738ccc-1d90-43d6-8209-f87a040a8106,,1500,250,stim,,"<div class = centerbox><div class = stroop-stim style = ""color:green"">RED</div></div>","66,71,82",1500,test,TRUE,71,500,incongruent,green,red,,,,,-1,-1,poldrack-single-stim,181,392559,0.0-181.0,a0738ccc-1d90-43d6-8209-f87a040a8106,,500,500,fixation,,<div class = centerbox><div class = fixation>+</div></div>,none,500,test,,,,,,,,,,,893,66,poldrack-categorize,182,395072,0.0-182.0,a0738ccc-1d90-43d6-8209-f87a040a8106,,1500,250,stim,,"<div class = centerbox><div class = stroop-stim style = ""color:blue"">BLUE</div></div>","66,71,82",1500,test,TRUE,66,500,congruent,blue,blue,,,,,-1,-1,poldrack-single-stim,183,395832,0.0-183.0,a0738ccc-1d90-43d6-8209-f87a040a8106,,500,500,fixation,,<div class = centerbox><div class = fixation>+</div></div>,none,500,test,,,,,,,,,,,1188,71,poldrack-categorize,184,398346,0.0-184.0,a0738ccc-1d90-43d6-8209-f87a040a8106,,1500,250,stim,,"<div class = centerbox><div class = stroop-stim style = ""color:green"">RED</div></div>","66,71,82",1500,test,TRUE,71,500,incongruent,green,red,,,,,-1,-1,poldrack-single-stim,185,399100,0.0-185.0,a0738ccc-1d90-43d6-8209-f87a040a8106,,500,500,fixation,,<div class = centerbox><div class = fixation>+</div></div>,none,500,test,,,,,,,,,,,1247,66,poldrack-categorize,186,401613,0.0-186.0,a0738ccc-1d90-43d6-8209-f87a040a8106,,1500,250,stim,,"<div class = centerbox><div class = stroop-stim style = ""color:blue"">GREEN</div></div>","66,71,82",1500,test,TRUE,66,500,incongruent,blue,green,,,,,-1,-1,poldrack-single-stim,187,402374,0.0-187.0,a0738ccc-1d90-43d6-8209-f87a040a8106,,500,500,fixation,,<div class = centerbox><div class = fixation>+</div></div>,none,500,test,,,,,,,,,,,1212,66,poldrack-categorize,188,404887,0.0-188.0,a0738ccc-1d90-43d6-8209-f87a040a8106,,1500,250,stim,,"<div class = centerbox><div class = stroop-stim style = ""color:blue"">BLUE</div></div>","66,71,82",1500,test,TRUE,66,500,congruent,blue,blue,,,,,-1,-1,poldrack-single-stim,189,405642,0.0-189.0,a0738ccc-1d90-43d6-8209-f87a040a8106,,500,500,fixation,,<div class = centerbox><div class = fixation>+</div></div>,none,500,test,,,,,,,,,,,903,66,poldrack-categorize,190,408155,0.0-190.0,a0738ccc-1d90-43d6-8209-f87a040a8106,,1500,250,stim,,"<div class = centerbox><div class = stroop-stim style = ""color:blue"">RED</div></div>","66,71,82",1500,test,TRUE,66,500,incongruent,blue,red,,,,,-1,-1,poldrack-single-stim,191,408910,0.0-191.0,a0738ccc-1d90-43d6-8209-f87a040a8106,,500,500,fixation,,<div class = centerbox><div class = fixation>+</div></div>,none,500,test,,,,,,,,,,,540,66,poldrack-categorize,192,411423,0.0-192.0,a0738ccc-1d90-43d6-8209-f87a040a8106,,1500,250,stim,,"<div class = centerbox><div class = stroop-stim style = ""color:blue"">BLUE</div></div>","66,71,82",1500,test,TRUE,66,500,congruent,blue,blue,,,,,-1,-1,poldrack-single-stim,193,412184,0.0-193.0,a0738ccc-1d90-43d6-8209-f87a040a8106,,500,500,fixation,,<div class = centerbox><div class = fixation>+</div></div>,none,500,test,,,,,,,,,,,810,66,poldrack-categorize,194,414697,0.0-194.0,a0738ccc-1d90-43d6-8209-f87a040a8106,,1500,250,stim,,"<div class = centerbox><div class = stroop-stim style = ""color:blue"">RED</div></div>","66,71,82",1500,test,TRUE,66,500,incongruent,blue,red,,,,,-1,-1,poldrack-single-stim,195,415457,0.0-195.0,a0738ccc-1d90-43d6-8209-f87a040a8106,,500,500,fixation,,<div class = centerbox><div class = fixation>+</div></div>,none,500,test,,,,,,,,,,,616,82,poldrack-categorize,196,417970,0.0-196.0,a0738ccc-1d90-43d6-8209-f87a040a8106,,1500,250,stim,,"<div class = centerbox><div class = stroop-stim style = ""color:red"">RED</div></div>","66,71,82",1500,test,TRUE,82,500,congruent,red,red,,,,,-1,-1,poldrack-single-stim,197,418731,0.0-197.0,a0738ccc-1d90-43d6-8209-f87a040a8106,,500,500,fixation,,<div class = centerbox><div class = fixation>+</div></div>,none,500,test,,,,,,,,,,,497,82,poldrack-categorize,198,421239,0.0-198.0,a0738ccc-1d90-43d6-8209-f87a040a8106,,1500,250,stim,,"<div class = centerbox><div class = stroop-stim style = ""color:red"">RED</div></div>","66,71,82",1500,test,TRUE,82,500,congruent,red,red,,,,,-1,-1,poldrack-single-stim,199,421999,0.0-199.0,a0738ccc-1d90-43d6-8209-f87a040a8106,,500,500,fixation,,<div class = centerbox><div class = fixation>+</div></div>,none,500,test,,,,,,,,,,,465,66,poldrack-categorize,200,424511,0.0-200.0,a0738ccc-1d90-43d6-8209-f87a040a8106,,1500,250,stim,,"<div class = centerbox><div class = stroop-stim style = ""color:blue"">BLUE</div></div>","66,71,82",1500,test,TRUE,66,500,congruent,blue,blue,,,,,-1,-1,poldrack-single-stim,201,425267,0.0-201.0,a0738ccc-1d90-43d6-8209-f87a040a8106,,500,500,fixation,,<div class = centerbox><div class = fixation>+</div></div>,none,500,test,,,,,,,,,,,493,66,poldrack-categorize,202,427780,0.0-202.0,a0738ccc-1d90-43d6-8209-f87a040a8106,,1500,250,stim,,"<div class = centerbox><div class = stroop-stim style = ""color:blue"">BLUE</div></div>","66,71,82",1500,test,TRUE,66,500,congruent,blue,blue,,,,,-1,-1,poldrack-single-stim,203,428535,0.0-203.0,a0738ccc-1d90-43d6-8209-f87a040a8106,,500,500,fixation,,<div class = centerbox><div class = fixation>+</div></div>,none,500,test,,,,,,,,,,,585,71,poldrack-categorize,204,431048,0.0-204.0,a0738ccc-1d90-43d6-8209-f87a040a8106,,1500,250,stim,,"<div class = centerbox><div class = stroop-stim style = ""color:green"">GREEN</div></div>","66,71,82",1500,test,TRUE,71,500,congruent,green,green,,,,,-1,-1,poldrack-single-stim,205,431810,0.0-205.0,a0738ccc-1d90-43d6-8209-f87a040a8106,,500,500,fixation,,<div class = centerbox><div class = fixation>+</div></div>,none,500,test,,,,,,,,,,,952,82,poldrack-categorize,206,434322,0.0-206.0,a0738ccc-1d90-43d6-8209-f87a040a8106,,1500,250,stim,,"<div class = centerbox><div class = stroop-stim style = ""color:red"">BLUE</div></div>","66,71,82",1500,test,TRUE,82,500,incongruent,red,blue,,,,,-1,-1,poldrack-single-stim,207,435083,0.0-207.0,a0738ccc-1d90-43d6-8209-f87a040a8106,,500,500,fixation,,<div class = centerbox><div class = fixation>+</div></div>,none,500,test,,,,,,,,,,,845,82,poldrack-categorize,208,437596,0.0-208.0,a0738ccc-1d90-43d6-8209-f87a040a8106,,1500,250,stim,,"<div class = centerbox><div class = stroop-stim style = ""color:red"">BLUE</div></div>","66,71,82",1500,test,TRUE,82,500,incongruent,red,blue,,,,,-1,-1,poldrack-single-stim,209,438356,0.0-209.0,a0738ccc-1d90-43d6-8209-f87a040a8106,,500,500,fixation,,<div class = centerbox><div class = fixation>+</div></div>,none,500,test,,,,,,,,,,,955,71,poldrack-categorize,210,440870,0.0-210.0,a0738ccc-1d90-43d6-8209-f87a040a8106,,1500,250,stim,,"<div class = centerbox><div class = stroop-stim style = ""color:green"">GREEN</div></div>","66,71,82",1500,test,TRUE,71,500,congruent,green,green,,,,,-1,-1,poldrack-single-stim,211,441628,0.0-211.0,a0738ccc-1d90-43d6-8209-f87a040a8106,,500,500,fixation,,<div class = centerbox><div class = fixation>+</div></div>,none,500,test,,,,,,,,,,,751,71,poldrack-categorize,212,444138,0.0-212.0,a0738ccc-1d90-43d6-8209-f87a040a8106,,1500,250,stim,,"<div class = centerbox><div class = stroop-stim style = ""color:green"">GREEN</div></div>","66,71,82",1500,test,TRUE,71,500,congruent,green,green,,,,,-1,-1,poldrack-single-stim,213,444898,0.0-213.0,a0738ccc-1d90-43d6-8209-f87a040a8106,,500,500,fixation,,<div class = centerbox><div class = fixation>+</div></div>,none,500,test,,,,,,,,,,,638,71,poldrack-categorize,214,447406,0.0-214.0,a0738ccc-1d90-43d6-8209-f87a040a8106,,1500,250,stim,,"<div class = centerbox><div class = stroop-stim style = ""color:green"">GREEN</div></div>","66,71,82",1500,test,TRUE,71,500,congruent,green,green,,,,,-1,-1,poldrack-single-stim,215,448166,0.0-215.0,a0738ccc-1d90-43d6-8209-f87a040a8106,,500,500,fixation,,<div class = centerbox><div class = fixation>+</div></div>,none,500,test,,,,,,,,,,,1184,71,poldrack-categorize,216,450679,0.0-216.0,a0738ccc-1d90-43d6-8209-f87a040a8106,,1500,250,stim,,"<div class = centerbox><div class = stroop-stim style = ""color:green"">BLUE</div></div>","66,71,82",1500,test,TRUE,71,500,incongruent,green,blue,,,,,-1,-1,poldrack-single-stim,217,451440,0.0-217.0,a0738ccc-1d90-43d6-8209-f87a040a8106,,500,500,fixation,,<div class = centerbox><div class = fixation>+</div></div>,none,500,test,,,,,,,,,,,703,66,poldrack-categorize,218,453953,0.0-218.0,a0738ccc-1d90-43d6-8209-f87a040a8106,,1500,250,stim,,"<div class = centerbox><div class = stroop-stim style = ""color:blue"">BLUE</div></div>","66,71,82",1500,test,TRUE,66,500,congruent,blue,blue,,,,,-1,-1,poldrack-single-stim,219,454714,0.0-219.0,a0738ccc-1d90-43d6-8209-f87a040a8106,,500,500,fixation,,<div class = centerbox><div class = fixation>+</div></div>,none,500,test,,,,,,,,,,,701,82,poldrack-categorize,220,457227,0.0-220.0,a0738ccc-1d90-43d6-8209-f87a040a8106,,1500,250,stim,,"<div class = centerbox><div class = stroop-stim style = ""color:red"">RED</div></div>","66,71,82",1500,test,TRUE,82,500,congruent,red,red,,,,,-1,-1,poldrack-single-stim,221,457987,0.0-221.0,a0738ccc-1d90-43d6-8209-f87a040a8106,,500,500,fixation,,<div class = centerbox><div class = fixation>+</div></div>,none,500,test,,,,,,,,,,,587,82,poldrack-categorize,222,460501,0.0-222.0,a0738ccc-1d90-43d6-8209-f87a040a8106,,1500,250,stim,,"<div class = centerbox><div class = stroop-stim style = ""color:red"">RED</div></div>","66,71,82",1500,test,TRUE,82,500,congruent,red,red,,,,,-1,-1,poldrack-single-stim,223,461261,0.0-223.0,a0738ccc-1d90-43d6-8209-f87a040a8106,,500,500,fixation,,<div class = centerbox><div class = fixation>+</div></div>,none,500,test,,,,,,,,,,,1392,71,poldrack-categorize,224,463769,0.0-224.0,a0738ccc-1d90-43d6-8209-f87a040a8106,,1500,250,stim,,"<div class = centerbox><div class = stroop-stim style = ""color:blue"">RED</div></div>","66,71,82",1500,test,FALSE,66,500,incongruent,blue,red,,,,,-1,-1,poldrack-single-stim,225,464529,0.0-225.0,a0738ccc-1d90-43d6-8209-f87a040a8106,,500,500,fixation,,<div class = centerbox><div class = fixation>+</div></div>,none,500,test,,,,,,,,,,,1148,71,poldrack-categorize,226,467042,0.0-226.0,a0738ccc-1d90-43d6-8209-f87a040a8106,,1500,250,stim,,"<div class = centerbox><div class = stroop-stim style = ""color:green"">RED</div></div>","66,71,82",1500,test,TRUE,71,500,incongruent,green,red,,,,,-1,-1,poldrack-single-stim,227,467803,0.0-227.0,a0738ccc-1d90-43d6-8209-f87a040a8106,,500,500,fixation,,<div class = centerbox><div class = fixation>+</div></div>,none,500,test,,,,,,,,,,,1244,82,poldrack-categorize,228,470315,0.0-228.0,a0738ccc-1d90-43d6-8209-f87a040a8106,,1500,250,stim,,"<div class = centerbox><div class = stroop-stim style = ""color:red"">GREEN</div></div>","66,71,82",1500,test,TRUE,82,500,incongruent,red,green,,,,,-1,-1,poldrack-single-stim,229,471071,0.0-229.0,a0738ccc-1d90-43d6-8209-f87a040a8106,,500,500,fixation,,<div class = centerbox><div class = fixation>+</div></div>,none,500,test,,,,,,,,,,,710,82,poldrack-categorize,230,473584,0.0-230.0,a0738ccc-1d90-43d6-8209-f87a040a8106,,1500,250,stim,,"<div class = centerbox><div class = stroop-stim style = ""color:red"">GREEN</div></div>","66,71,82",1500,test,TRUE,82,500,incongruent,red,green,,,,,-1,-1,poldrack-single-stim,231,474336,0.0-231.0,a0738ccc-1d90-43d6-8209-f87a040a8106,,500,500,fixation,,<div class = centerbox><div class = fixation>+</div></div>,none,500,test,,,,,,,,,,,495,82,poldrack-categorize,232,476846,0.0-232.0,a0738ccc-1d90-43d6-8209-f87a040a8106,,1500,250,stim,,"<div class = centerbox><div class = stroop-stim style = ""color:red"">GREEN</div></div>","66,71,82",1500,test,TRUE,82,500,incongruent,red,green,,,,,-1,-1,poldrack-single-stim,233,477607,0.0-233.0,a0738ccc-1d90-43d6-8209-f87a040a8106,,500,500,fixation,,<div class = centerbox><div class = fixation>+</div></div>,none,500,test,,,,,,,,,,,1046,66,poldrack-categorize,234,480120,0.0-234.0,a0738ccc-1d90-43d6-8209-f87a040a8106,,1500,250,stim,,"<div class = centerbox><div class = stroop-stim style = ""color:blue"">RED</div></div>","66,71,82",1500,test,TRUE,66,500,incongruent,blue,red,,,,,-1,-1,poldrack-single-stim,235,480875,0.0-235.0,a0738ccc-1d90-43d6-8209-f87a040a8106,,500,500,fixation,,<div class = centerbox><div class = fixation>+</div></div>,none,500,test,,,,,,,,,,,953,71,poldrack-categorize,236,483388,0.0-236.0,a0738ccc-1d90-43d6-8209-f87a040a8106,,1500,250,stim,,"<div class = centerbox><div class = stroop-stim style = ""color:green"">GREEN</div></div>","66,71,82",1500,test,TRUE,71,500,congruent,green,green,,,,,-1,-1,poldrack-single-stim,237,484143,0.0-237.0,a0738ccc-1d90-43d6-8209-f87a040a8106,,500,500,fixation,,<div class = centerbox><div class = fixation>+</div></div>,none,500,test,,,,,,,,,,,957,71,poldrack-categorize,238,486656,0.0-238.0,a0738ccc-1d90-43d6-8209-f87a040a8106,,1500,250,stim,,"<div class = centerbox><div class = stroop-stim style = ""color:green"">BLUE</div></div>","66,71,82",1500,test,TRUE,71,500,incongruent,green,blue,,,,,-1,-1,poldrack-single-stim,239,487417,0.0-239.0,a0738ccc-1d90-43d6-8209-f87a040a8106,,500,500,fixation,,<div class = centerbox><div class = fixation>+</div></div>,none,500,test,,,,,,,,,,,955,82,poldrack-categorize,240,489930,0.0-240.0,a0738ccc-1d90-43d6-8209-f87a040a8106,,1500,250,stim,,"<div class = centerbox><div class = stroop-stim style = ""color:red"">GREEN</div></div>","66,71,82",1500,test,TRUE,82,500,incongruent,red,green,,,,,-1,-1,poldrack-single-stim,241,490690,0.0-241.0,a0738ccc-1d90-43d6-8209-f87a040a8106,,500,500,fixation,,<div class = centerbox><div class = fixation>+</div></div>,none,500,test,,,,,,,,,,,833,71,poldrack-categorize,242,493203,0.0-242.0,a0738ccc-1d90-43d6-8209-f87a040a8106,,1500,250,stim,,"<div class = centerbox><div class = stroop-stim style = ""color:green"">BLUE</div></div>","66,71,82",1500,test,TRUE,71,500,incongruent,green,blue,,,,,-1,-1,poldrack-single-stim,243,493964,0.0-243.0,a0738ccc-1d90-43d6-8209-f87a040a8106,,500,500,fixation,,<div class = centerbox><div class = fixation>+</div></div>,none,500,test,,,,,,,,,,,823,66,poldrack-categorize,244,496477,0.0-244.0,a0738ccc-1d90-43d6-8209-f87a040a8106,,1500,250,stim,,"<div class = centerbox><div class = stroop-stim style = ""color:blue"">GREEN</div></div>","66,71,82",1500,test,TRUE,66,500,incongruent,blue,green,,,,,49225,,survey-text,245,545963,0.0-246.0,a0738ccc-1d90-43d6-8209-f87a040a8106,,,,post task questions,,,,,,,,,,,,"{""Q0"":""I was asked to report the color of the ink of three specific colors."",""Q1"":""no.""}",,,,7075,13,poldrack-text,246,554040,0.0-247.0,a0738ccc-1d90-43d6-8209-f87a040a8106,<div class = centerbox><p class = center-block-text>Thanks for completing this task!</p><p class = center-block-text>Press <strong>enter</strong> to continue.</p></div>,7075,0,end,,,,,,,,,,,,,stroop,TRUE,,2574,13,poldrack-text,247,556656,0.0-248.0-0.0,a0738ccc-1d90-43d6-8209-f87a040a8106,<div class = centerbox><p class = center-block-text>Done with instructions. Press <strong>enter</strong> to continue.</p></div>,2574,0,instruction,,,,,,,,,,,,,,,,