"rt","key_press","trial_type","trial_index","time_elapsed","internal_node_id","subject","text","block_duration","timing_post_trial","trial_id","view_history","stimulus","possible_responses","stim_duration","exp_stage","correct","correct_response","feedback_duration","condition","stim_color","stim_word","responses","exp_id","credit_var"
"1507","13","text","0","1509","0.0-0.0","6207d5a8-9649-4221-af3d-abf3457fb2fa","","","","","","","","","","","","","","","","","",""
"1044","13","poldrack-text","1","3556","0.0-1.0-0.0","6207d5a8-9649-4221-af3d-abf3457fb2fa","<div class = centerbox><p class = center-block-text>Welcome to the experiment. This experiment will take about 8 minutes. Press <strong>enter</strong> to begin.</p></div>","1044","0","instruction","","","","","","","","","","","","","",""
"100563","","poldrack-instructions","2","104120","0.0-1.0-1.0","6207d5a8-9649-4221-af3d-abf3457fb2fa","","","","instruction","[{""page_index"":0,""viewing_time"":100562}]","","","","","","","","","","","","",""
"11159","13","poldrack-text","3","116285","0.0-2.0","6207d5a8-9649-4221-af3d-abf3457fb2fa","<div class = centerbox><p class = block-text>We will start with a few practice trials. Remember, press the key corresponding to the <strong>ink</strong> color of the word: ""r"" for words colored red, ""b"" for words colored blue, and ""g"" for words colored green.</p><p class = block-text>Press <strong>enter</strong> to begin practice.</p></div>","11159","1000","practice_intro","","","","","","","","","","","","","",""
"-1","-1","poldrack-single-stim","4","117791","0.0-3.0","6207d5a8-9649-4221-af3d-abf3457fb2fa","","500","500","fixation","","<div class = centerbox><div class = fixation>+</div></div>","none","500","practice","","","","","","","","",""
"-1","-1","poldrack-categorize","5","120299","0.0-4.0","6207d5a8-9649-4221-af3d-abf3457fb2fa","","1500","250","stim","","<div class = centerbox><div class = stroop-stim style = ""color:red"">GREEN</div></div>","66,71,82","1500","practice","false","82","500","incongruent","red","green","","",""
"-1","-1","poldrack-single-stim","6","121059","0.0-5.0","6207d5a8-9649-4221-af3d-abf3457fb2fa","","500","500","fixation","","<div class = centerbox><div class = fixation>+</div></div>","none","500","practice","","","","","","","","",""
"936","66","poldrack-categorize","7","123573","0.0-6.0","6207d5a8-9649-4221-af3d-abf3457fb2fa","","1500","250","stim","","<div class = centerbox><div class = stroop-stim style = ""color:blue"">BLUE</div></div>","66,71,82","1500","practice","true","66","500","congruent","blue","blue","","",""
"-1","-1","poldrack-single-stim","8","124332","0.0-7.0","6207d5a8-9649-4221-af3d-abf3457fb2fa","","500","500","fixation","","<div class = centerbox><div class = fixation>+</div></div>","none","500","practice","","","","","","","","",""
"632","71","poldrack-categorize","9","126846","0.0-8.0","6207d5a8-9649-4221-af3d-abf3457fb2fa","","1500","250","stim","","<div class = centerbox><div class = stroop-stim style = ""color:green"">GREEN</div></div>","66,71,82","1500","practice","true","71","500","congruent","green","green","","",""
"-1","-1","poldrack-single-stim","10","127604","0.0-9.0","6207d5a8-9649-4221-af3d-abf3457fb2fa","","500","500","fixation","","<div class = centerbox><div class = fixation>+</div></div>","none","500","practice","","","","","","","","",""
"793","66","poldrack-categorize","11","130114","0.0-10.0","6207d5a8-9649-4221-af3d-abf3457fb2fa","","1500","250","stim","","<div class = centerbox><div class = stroop-stim style = ""color:blue"">BLUE</div></div>","66,71,82","1500","practice","true","66","500","congruent","blue","blue","","",""
"-1","-1","poldrack-single-stim","12","130875","0.0-11.0","6207d5a8-9649-4221-af3d-abf3457fb2fa","","500","500","fixation","","<div class = centerbox><div class = fixation>+</div></div>","none","500","practice","","","","","","","","",""
"1327","82","poldrack-categorize","13","133389","0.0-12.0","6207d5a8-9649-4221-af3d-abf3457fb2fa","","1500","250","stim","","<div class = centerbox><div class = stroop-stim style = ""color:red"">BLUE</div></div>","66,71,82","1500","practice","true","82","500","incongruent","red","blue","","",""
"-1","-1","poldrack-single-stim","14","134149","0.0-13.0","6207d5a8-9649-4221-af3d-abf3457fb2fa","","500","500","fixation","","<div class = centerbox><div class = fixation>+</div></div>","none","500","practice","","","","","","","","",""
"1021","71","poldrack-categorize","15","136662","0.0-14.0","6207d5a8-9649-4221-af3d-abf3457fb2fa","","1500","250","stim","","<div class = centerbox><div class = stroop-stim style = ""color:green"">RED</div></div>","66,71,82","1500","practice","true","71","500","incongruent","green","red","","",""
"-1","-1","poldrack-single-stim","16","137422","0.0-15.0","6207d5a8-9649-4221-af3d-abf3457fb2fa","","500","500","fixation","","<div class = centerbox><div class = fixation>+</div></div>","none","500","practice","","","","","","","","",""
"972","71","poldrack-categorize","17","139936","0.0-16.0","6207d5a8-9649-4221-af3d-abf3457fb2fa","","1500","250","stim","","<div class = centerbox><div class = stroop-stim style = ""color:green"">GREEN</div></div>","66,71,82","1500","practice","true","71","500","congruent","green","green","","",""
"-1","-1","poldrack-single-stim","18","140696","0.0-17.0","6207d5a8-9649-4221-af3d-abf3457fb2fa","","500","500","fixation","","<div class = centerbox><div class = fixation>+</div></div>","none","500","practice","","","","","","","","",""
"859","82","poldrack-categorize","19","143210","0.0-18.0","6207d5a8-9649-4221-af3d-abf3457fb2fa","","1500","250","stim","","<div class = centerbox><div class = stroop-stim style = ""color:red"">RED</div></div>","66,71,82","1500","practice","true","82","500","congruent","red","red","","",""
"-1","-1","poldrack-single-stim","20","143970","0.0-19.0","6207d5a8-9649-4221-af3d-abf3457fb2fa","","500","500","fixation","","<div class = centerbox><div class = fixation>+</div></div>","none","500","practice","","","","","","","","",""
"1127","71","poldrack-categorize","21","146483","0.0-20.0","6207d5a8-9649-4221-af3d-abf3457fb2fa","","1500","250","stim","","<div class = centerbox><div class = stroop-stim style = ""color:green"">BLUE</div></div>","66,71,82","1500","practice","true","71","500","incongruent","green","blue","","",""
"-1","-1","poldrack-single-stim","22","147238","0.0-21.0","6207d5a8-9649-4221-af3d-abf3457fb2fa","","500","500","fixation","","<div class = centerbox><div class = fixation>+</div></div>","none","500","practice","","","","","","","","",""
"875","71","poldrack-categorize","23","149751","0.0-22.0","6207d5a8-9649-4221-af3d-abf3457fb2fa","","1500","250","stim","","<div class = centerbox><div class = stroop-stim style = ""color:green"">BLUE</div></div>","66,71,82","1500","practice","true","71","500","incongruent","green","blue","","",""
"-1","-1","poldrack-single-stim","24","150506","0.0-23.0","6207d5a8-9649-4221-af3d-abf3457fb2fa","","500","500","fixation","","<div class = centerbox><div class = fixation>+</div></div>","none","500","practice","","","","","","","","",""
"1167","82","poldrack-categorize","25","153019","0.0-24.0","6207d5a8-9649-4221-af3d-abf3457fb2fa","","1500","250","stim","","<div class = centerbox><div class = stroop-stim style = ""color:red"">BLUE</div></div>","66,71,82","1500","practice","true","82","500","incongruent","red","blue","","",""
"-1","-1","poldrack-single-stim","26","153780","0.0-25.0","6207d5a8-9649-4221-af3d-abf3457fb2fa","","500","500","fixation","","<div class = centerbox><div class = fixation>+</div></div>","none","500","practice","","","","","","","","",""
"701","82","poldrack-categorize","27","156293","0.0-26.0","6207d5a8-9649-4221-af3d-abf3457fb2fa","","1500","250","stim","","<div class = centerbox><div class = stroop-stim style = ""color:red"">RED</div></div>","66,71,82","1500","practice","true","82","500","congruent","red","red","","",""
"-1","-1","poldrack-single-stim","28","157054","0.0-27.0","6207d5a8-9649-4221-af3d-abf3457fb2fa","","500","500","fixation","","<div class = centerbox><div class = fixation>+</div></div>","none","500","practice","","","","","","","","",""
"771","66","poldrack-categorize","29","159566","0.0-28.0","6207d5a8-9649-4221-af3d-abf3457fb2fa","","1500","250","stim","","<div class = centerbox><div class = stroop-stim style = ""color:blue"">BLUE</div></div>","66,71,82","1500","practice","true","66","500","congruent","blue","blue","","",""
"-1","-1","poldrack-single-stim","30","160319","0.0-29.0","6207d5a8-9649-4221-af3d-abf3457fb2fa","","500","500","fixation","","<div class = centerbox><div class = fixation>+</div></div>","none","500","practice","","","","","","","","",""
"564","71","poldrack-categorize","31","162829","0.0-30.0","6207d5a8-9649-4221-af3d-abf3457fb2fa","","1500","250","stim","","<div class = centerbox><div class = stroop-stim style = ""color:green"">GREEN</div></div>","66,71,82","1500","practice","true","71","500","congruent","green","green","","",""
"-1","-1","poldrack-single-stim","32","163590","0.0-31.0","6207d5a8-9649-4221-af3d-abf3457fb2fa","","500","500","fixation","","<div class = centerbox><div class = fixation>+</div></div>","none","500","practice","","","","","","","","",""
"692","66","poldrack-categorize","33","166103","0.0-32.0","6207d5a8-9649-4221-af3d-abf3457fb2fa","","1500","250","stim","","<div class = centerbox><div class = stroop-stim style = ""color:blue"">BLUE</div></div>","66,71,82","1500","practice","true","66","500","congruent","blue","blue","","",""
"-1","-1","poldrack-single-stim","34","166864","0.0-33.0","6207d5a8-9649-4221-af3d-abf3457fb2fa","","500","500","fixation","","<div class = centerbox><div class = fixation>+</div></div>","none","500","practice","","","","","","","","",""
"857","66","poldrack-categorize","35","169377","0.0-34.0","6207d5a8-9649-4221-af3d-abf3457fb2fa","","1500","250","stim","","<div class = centerbox><div class = stroop-stim style = ""color:blue"">RED</div></div>","66,71,82","1500","practice","true","66","500","incongruent","blue","red","","",""
"-1","-1","poldrack-single-stim","36","170132","0.0-35.0","6207d5a8-9649-4221-af3d-abf3457fb2fa","","500","500","fixation","","<div class = centerbox><div class = fixation>+</div></div>","none","500","practice","","","","","","","","",""
"677","66","poldrack-categorize","37","172645","0.0-36.0","6207d5a8-9649-4221-af3d-abf3457fb2fa","","1500","250","stim","","<div class = centerbox><div class = stroop-stim style = ""color:blue"">RED</div></div>","66,71,82","1500","practice","true","66","500","incongruent","blue","red","","",""
"-1","-1","poldrack-single-stim","38","173405","0.0-37.0","6207d5a8-9649-4221-af3d-abf3457fb2fa","","500","500","fixation","","<div class = centerbox><div class = fixation>+</div></div>","none","500","practice","","","","","","","","",""
"563","82","poldrack-categorize","39","175916","0.0-38.0","6207d5a8-9649-4221-af3d-abf3457fb2fa","","1500","250","stim","","<div class = centerbox><div class = stroop-stim style = ""color:red"">RED</div></div>","66,71,82","1500","practice","true","82","500","congruent","red","red","","",""
"-1","-1","poldrack-single-stim","40","176673","0.0-39.0","6207d5a8-9649-4221-af3d-abf3457fb2fa","","500","500","fixation","","<div class = centerbox><div class = fixation>+</div></div>","none","500","practice","","","","","","","","",""
"655","71","poldrack-categorize","41","179187","0.0-40.0","6207d5a8-9649-4221-af3d-abf3457fb2fa","","1500","250","stim","","<div class = centerbox><div class = stroop-stim style = ""color:green"">GREEN</div></div>","66,71,82","1500","practice","true","71","500","congruent","green","green","","",""
"-1","-1","poldrack-single-stim","42","179947","0.0-41.0","6207d5a8-9649-4221-af3d-abf3457fb2fa","","500","500","fixation","","<div class = centerbox><div class = fixation>+</div></div>","none","500","practice","","","","","","","","",""
"924","82","poldrack-categorize","43","182460","0.0-42.0","6207d5a8-9649-4221-af3d-abf3457fb2fa","","1500","250","stim","","<div class = centerbox><div class = stroop-stim style = ""color:red"">GREEN</div></div>","66,71,82","1500","practice","true","82","500","incongruent","red","green","","",""
"-1","-1","poldrack-single-stim","44","183221","0.0-43.0","6207d5a8-9649-4221-af3d-abf3457fb2fa","","500","500","fixation","","<div class = centerbox><div class = fixation>+</div></div>","none","500","practice","","","","","","","","",""
"738","66","poldrack-categorize","45","185734","0.0-44.0","6207d5a8-9649-4221-af3d-abf3457fb2fa","","1500","250","stim","","<div class = centerbox><div class = stroop-stim style = ""color:blue"">GREEN</div></div>","66,71,82","1500","practice","true","66","500","incongruent","blue","green","","",""
"-1","-1","poldrack-single-stim","46","186495","0.0-45.0","6207d5a8-9649-4221-af3d-abf3457fb2fa","","500","500","fixation","","<div class = centerbox><div class = fixation>+</div></div>","none","500","practice","","","","","","","","",""
"1248","66","poldrack-categorize","47","189008","0.0-46.0","6207d5a8-9649-4221-af3d-abf3457fb2fa","","1500","250","stim","","<div class = centerbox><div class = stroop-stim style = ""color:blue"">GREEN</div></div>","66,71,82","1500","practice","true","66","500","incongruent","blue","green","","",""
"-1","-1","poldrack-single-stim","48","189769","0.0-47.0","6207d5a8-9649-4221-af3d-abf3457fb2fa","","500","500","fixation","","<div class = centerbox><div class = fixation>+</div></div>","none","500","practice","","","","","","","","",""
"1134","71","poldrack-categorize","49","192282","0.0-48.0","6207d5a8-9649-4221-af3d-abf3457fb2fa","","1500","250","stim","","<div class = centerbox><div class = stroop-stim style = ""color:green"">RED</div></div>","66,71,82","1500","practice","true","71","500","incongruent","green","red","","",""
"-1","-1","poldrack-single-stim","50","193039","0.0-49.0","6207d5a8-9649-4221-af3d-abf3457fb2fa","","500","500","fixation","","<div class = centerbox><div class = fixation>+</div></div>","none","500","practice","","","","","","","","",""
"618","82","poldrack-categorize","51","195550","0.0-50.0","6207d5a8-9649-4221-af3d-abf3457fb2fa","","1500","250","stim","","<div class = centerbox><div class = stroop-stim style = ""color:red"">RED</div></div>","66,71,82","1500","practice","true","82","500","congruent","red","red","","",""
"4954","13","poldrack-text","52","200760","0.0-52.0","6207d5a8-9649-4221-af3d-abf3457fb2fa","<div class = centerbox><p class = center-block-text>We will now start the test. Respond exactly like you did during practice.</p><p class = center-block-text>Press <strong>enter</strong> to begin the test.</p></div>","4954","1000","test_intro","","","","","","","","","","","","","",""
"-1","-1","poldrack-single-stim","53","202266","0.0-53.0","6207d5a8-9649-4221-af3d-abf3457fb2fa","","500","500","fixation","","<div class = centerbox><div class = fixation>+</div></div>","none","500","test","","","","","","","","",""
"733","71","poldrack-categorize","54","204773","0.0-54.0","6207d5a8-9649-4221-af3d-abf3457fb2fa","","1500","250","stim","","<div class = centerbox><div class = stroop-stim style = ""color:green"">GREEN</div></div>","66,71,82","1500","test","true","71","500","congruent","green","green","","",""
"-1","-1","poldrack-single-stim","55","205534","0.0-55.0","6207d5a8-9649-4221-af3d-abf3457fb2fa","","500","500","fixation","","<div class = centerbox><div class = fixation>+</div></div>","none","500","test","","","","","","","","",""
"575","71","poldrack-categorize","56","208047","0.0-56.0","6207d5a8-9649-4221-af3d-abf3457fb2fa","","1500","250","stim","","<div class = centerbox><div class = stroop-stim style = ""color:green"">GREEN</div></div>","66,71,82","1500","test","true","71","500","congruent","green","green","","",""
"-1","-1","poldrack-single-stim","57","208806","0.0-57.0","6207d5a8-9649-4221-af3d-abf3457fb2fa","","500","500","fixation","","<div class = centerbox><div class = fixation>+</div></div>","none","500","test","","","","","","","","",""
"713","66","poldrack-categorize","58","211315","0.0-58.0","6207d5a8-9649-4221-af3d-abf3457fb2fa","","1500","250","stim","","<div class = centerbox><div class = stroop-stim style = ""color:blue"">BLUE</div></div>","66,71,82","1500","test","true","66","500","congruent","blue","blue","","",""
"-1","-1","poldrack-single-stim","59","212076","0.0-59.0","6207d5a8-9649-4221-af3d-abf3457fb2fa","","500","500","fixation","","<div class = centerbox><div class = fixation>+</div></div>","none","500","test","","","","","","","","",""
"628","66","poldrack-categorize","60","214583","0.0-60.0","6207d5a8-9649-4221-af3d-abf3457fb2fa","","1500","250","stim","","<div class = centerbox><div class = stroop-stim style = ""color:blue"">BLUE</div></div>","66,71,82","1500","test","true","66","500","congruent","blue","blue","","",""
"-1","-1","poldrack-single-stim","61","215344","0.0-61.0","6207d5a8-9649-4221-af3d-abf3457fb2fa","","500","500","fixation","","<div class = centerbox><div class = fixation>+</div></div>","none","500","test","","","","","","","","",""
"701","66","poldrack-categorize","62","217857","0.0-62.0","6207d5a8-9649-4221-af3d-abf3457fb2fa","","1500","250","stim","","<div class = centerbox><div class = stroop-stim style = ""color:blue"">BLUE</div></div>","66,71,82","1500","test","true","66","500","congruent","blue","blue","","",""
"-1","-1","poldrack-single-stim","63","218616","0.0-63.0","6207d5a8-9649-4221-af3d-abf3457fb2fa","","500","500","fixation","","<div class = centerbox><div class = fixation>+</div></div>","none","500","test","","","","","","","","",""
"1101","71","poldrack-categorize","64","221131","0.0-64.0","6207d5a8-9649-4221-af3d-abf3457fb2fa","","1500","250","stim","","<div class = centerbox><div class = stroop-stim style = ""color:green"">RED</div></div>","66,71,82","1500","test","true","71","500","incongruent","green","red","","",""
"-1","-1","poldrack-single-stim","65","221891","0.0-65.0","6207d5a8-9649-4221-af3d-abf3457fb2fa","","500","500","fixation","","<div class = centerbox><div class = fixation>+</div></div>","none","500","test","","","","","","","","",""
"1283","66","poldrack-categorize","66","224399","0.0-66.0","6207d5a8-9649-4221-af3d-abf3457fb2fa","","1500","250","stim","","<div class = centerbox><div class = stroop-stim style = ""color:blue"">GREEN</div></div>","66,71,82","1500","test","true","66","500","incongruent","blue","green","","",""
"-1","-1","poldrack-single-stim","67","225159","0.0-67.0","6207d5a8-9649-4221-af3d-abf3457fb2fa","","500","500","fixation","","<div class = centerbox><div class = fixation>+</div></div>","none","500","test","","","","","","","","",""
"709","82","poldrack-categorize","68","227673","0.0-68.0","6207d5a8-9649-4221-af3d-abf3457fb2fa","","1500","250","stim","","<div class = centerbox><div class = stroop-stim style = ""color:red"">RED</div></div>","66,71,82","1500","test","true","82","500","congruent","red","red","","",""
"-1","-1","poldrack-single-stim","69","228433","0.0-69.0","6207d5a8-9649-4221-af3d-abf3457fb2fa","","500","500","fixation","","<div class = centerbox><div class = fixation>+</div></div>","none","500","test","","","","","","","","",""
"891","66","poldrack-categorize","70","230946","0.0-70.0","6207d5a8-9649-4221-af3d-abf3457fb2fa","","1500","250","stim","","<div class = centerbox><div class = stroop-stim style = ""color:blue"">GREEN</div></div>","66,71,82","1500","test","true","66","500","incongruent","blue","green","","",""
"-1","-1","poldrack-single-stim","71","231701","0.0-71.0","6207d5a8-9649-4221-af3d-abf3457fb2fa","","500","500","fixation","","<div class = centerbox><div class = fixation>+</div></div>","none","500","test","","","","","","","","",""
"777","66","poldrack-categorize","72","234214","0.0-72.0","6207d5a8-9649-4221-af3d-abf3457fb2fa","","1500","250","stim","","<div class = centerbox><div class = stroop-stim style = ""color:blue"">BLUE</div></div>","66,71,82","1500","test","true","66","500","congruent","blue","blue","","",""
"-1","-1","poldrack-single-stim","73","234975","0.0-73.0","6207d5a8-9649-4221-af3d-abf3457fb2fa","","500","500","fixation","","<div class = centerbox><div class = fixation>+</div></div>","none","500","test","","","","","","","","",""
"583","71","poldrack-categorize","74","237488","0.0-74.0","6207d5a8-9649-4221-af3d-abf3457fb2fa","","1500","250","stim","","<div class = centerbox><div class = stroop-stim style = ""color:green"">GREEN</div></div>","66,71,82","1500","test","true","71","500","congruent","green","green","","",""
"-1","-1","poldrack-single-stim","75","238249","0.0-75.0","6207d5a8-9649-4221-af3d-abf3457fb2fa","","500","500","fixation","","<div class = centerbox><div class = fixation>+</div></div>","none","500","test","","","","","","","","",""
"1036","71","poldrack-categorize","76","240756","0.0-76.0","6207d5a8-9649-4221-af3d-abf3457fb2fa","","1500","250","stim","","<div class = centerbox><div class = stroop-stim style = ""color:green"">BLUE</div></div>","66,71,82","1500","test","true","71","500","incongruent","green","blue","","",""
"-1","-1","poldrack-single-stim","77","241517","0.0-77.0","6207d5a8-9649-4221-af3d-abf3457fb2fa","","500","500","fixation","","<div class = centerbox><div class = fixation>+</div></div>","none","500","test","","","","","","","","",""
"822","82","poldrack-categorize","78","244030","0.0-78.0","6207d5a8-9649-4221-af3d-abf3457fb2fa","","1500","250","stim","","<div class = centerbox><div class = stroop-stim style = ""color:red"">GREEN</div></div>","66,71,82","1500","test","true","82","500","incongruent","red","green","","",""
"-1","-1","poldrack-single-stim","79","244793","0.0-79.0","6207d5a8-9649-4221-af3d-abf3457fb2fa","","500","500","fixation","","<div class = centerbox><div class = fixation>+</div></div>","none","500","test","","","","","","","","",""
"701","71","poldrack-categorize","80","247304","0.0-80.0","6207d5a8-9649-4221-af3d-abf3457fb2fa","","1500","250","stim","","<div class = centerbox><div class = stroop-stim style = ""color:green"">RED</div></div>","66,71,82","1500","test","true","71","500","incongruent","green","red","","",""
"-1","-1","poldrack-single-stim","81","248064","0.0-81.0","6207d5a8-9649-4221-af3d-abf3457fb2fa","","500","500","fixation","","<div class = centerbox><div class = fixation>+</div></div>","none","500","test","","","","","","","","",""
"548","71","poldrack-categorize","82","250578","0.0-82.0","6207d5a8-9649-4221-af3d-abf3457fb2fa","","1500","250","stim","","<div class = centerbox><div class = stroop-stim style = ""color:green"">GREEN</div></div>","66,71,82","1500","test","true","71","500","congruent","green","green","","",""
"-1","-1","poldrack-single-stim","83","251338","0.0-83.0","6207d5a8-9649-4221-af3d-abf3457fb2fa","","500","500","fixation","","<div class = centerbox><div class = fixation>+</div></div>","none","500","test","","","","","","","","",""
"569","82","poldrack-categorize","84","253848","0.0-84.0","6207d5a8-9649-4221-af3d-abf3457fb2fa","","1500","250","stim","","<div class = centerbox><div class = stroop-stim style = ""color:red"">RED</div></div>","66,71,82","1500","test","true","82","500","congruent","red","red","","",""
"-1","-1","poldrack-single-stim","85","254603","0.0-85.0","6207d5a8-9649-4221-af3d-abf3457fb2fa","","500","500","fixation","","<div class = centerbox><div class = fixation>+</div></div>","none","500","test","","","","","","","","",""
"906","71","poldrack-categorize","86","257114","0.0-86.0","6207d5a8-9649-4221-af3d-abf3457fb2fa","","1500","250","stim","","<div class = centerbox><div class = stroop-stim style = ""color:green"">RED</div></div>","66,71,82","1500","test","true","71","500","incongruent","green","red","","",""
"-1","-1","poldrack-single-stim","87","257874","0.0-87.0","6207d5a8-9649-4221-af3d-abf3457fb2fa","","500","500","fixation","","<div class = centerbox><div class = fixation>+</div></div>","none","500","test","","","","","","","","",""
"608","71","poldrack-categorize","88","260387","0.0-88.0","6207d5a8-9649-4221-af3d-abf3457fb2fa","","1500","250","stim","","<div class = centerbox><div class = stroop-stim style = ""color:green"">GREEN</div></div>","66,71,82","1500","test","true","71","500","congruent","green","green","","",""
"-1","-1","poldrack-single-stim","89","261148","0.0-89.0","6207d5a8-9649-4221-af3d-abf3457fb2fa","","500","500","fixation","","<div class = centerbox><div class = fixation>+</div></div>","none","500","test","","","","","","","","",""
"583","66","poldrack-categorize","90","263661","0.0-90.0","6207d5a8-9649-4221-af3d-abf3457fb2fa","","1500","250","stim","","<div class = centerbox><div class = stroop-stim style = ""color:blue"">RED</div></div>","66,71,82","1500","test","true","66","500","incongruent","blue","red","","",""
"-1","-1","poldrack-single-stim","91","264422","0.0-91.0","6207d5a8-9649-4221-af3d-abf3457fb2fa","","500","500","fixation","","<div class = centerbox><div class = fixation>+</div></div>","none","500","test","","","","","","","","",""
"749","71","poldrack-categorize","92","266935","0.0-92.0","6207d5a8-9649-4221-af3d-abf3457fb2fa","","1500","250","stim","","<div class = centerbox><div class = stroop-stim style = ""color:green"">BLUE</div></div>","66,71,82","1500","test","true","71","500","incongruent","green","blue","","",""
"-1","-1","poldrack-single-stim","93","267692","0.0-93.0","6207d5a8-9649-4221-af3d-abf3457fb2fa","","500","500","fixation","","<div class = centerbox><div class = fixation>+</div></div>","none","500","test","","","","","","","","",""
"599","82","poldrack-categorize","94","270203","0.0-94.0","6207d5a8-9649-4221-af3d-abf3457fb2fa","","1500","250","stim","","<div class = centerbox><div class = stroop-stim style = ""color:red"">RED</div></div>","66,71,82","1500","test","true","82","500","congruent","red","red","","",""
"-1","-1","poldrack-single-stim","95","270958","0.0-95.0","6207d5a8-9649-4221-af3d-abf3457fb2fa","","500","500","fixation","","<div class = centerbox><div class = fixation>+</div></div>","none","500","test","","","","","","","","",""
"819","71","poldrack-categorize","96","273471","0.0-96.0","6207d5a8-9649-4221-af3d-abf3457fb2fa","","1500","250","stim","","<div class = centerbox><div class = stroop-stim style = ""color:green"">RED</div></div>","66,71,82","1500","test","true","71","500","incongruent","green","red","","",""
"-1","-1","poldrack-single-stim","97","274232","0.0-97.0","6207d5a8-9649-4221-af3d-abf3457fb2fa","","500","500","fixation","","<div class = centerbox><div class = fixation>+</div></div>","none","500","test","","","","","","","","",""
"731","66","poldrack-categorize","98","276745","0.0-98.0","6207d5a8-9649-4221-af3d-abf3457fb2fa","","1500","250","stim","","<div class = centerbox><div class = stroop-stim style = ""color:blue"">RED</div></div>","66,71,82","1500","test","true","66","500","incongruent","blue","red","","",""
"-1","-1","poldrack-single-stim","99","277505","0.0-99.0","6207d5a8-9649-4221-af3d-abf3457fb2fa","","500","500","fixation","","<div class = centerbox><div class = fixation>+</div></div>","none","500","test","","","","","","","","",""
"658","71","poldrack-categorize","100","280018","0.0-100.0","6207d5a8-9649-4221-af3d-abf3457fb2fa","","1500","250","stim","","<div class = centerbox><div class = stroop-stim style = ""color:green"">RED</div></div>","66,71,82","1500","test","true","71","500","incongruent","green","red","","",""
"-1","-1","poldrack-single-stim","101","280779","0.0-101.0","6207d5a8-9649-4221-af3d-abf3457fb2fa","","500","500","fixation","","<div class = centerbox><div class = fixation>+</div></div>","none","500","test","","","","","","","","",""
"734","82","poldrack-categorize","102","283292","0.0-102.0","6207d5a8-9649-4221-af3d-abf3457fb2fa","","1500","250","stim","","<div class = centerbox><div class = stroop-stim style = ""color:red"">RED</div></div>","66,71,82","1500","test","true","82","500","congruent","red","red","","",""
"-1","-1","poldrack-single-stim","103","284053","0.0-103.0","6207d5a8-9649-4221-af3d-abf3457fb2fa","","500","500","fixation","","<div class = centerbox><div class = fixation>+</div></div>","none","500","test","","","","","","","","",""
"582","71","poldrack-categorize","104","286566","0.0-104.0","6207d5a8-9649-4221-af3d-abf3457fb2fa","","1500","250","stim","","<div class = centerbox><div class = stroop-stim style = ""color:green"">GREEN</div></div>","66,71,82","1500","test","true","71","500","congruent","green","green","","",""
"-1","-1","poldrack-single-stim","105","287327","0.0-105.0","6207d5a8-9649-4221-af3d-abf3457fb2fa","","500","500","fixation","","<div class = centerbox><div class = fixation>+</div></div>","none","500","test","","","","","","","","",""
"810","82","poldrack-categorize","106","289840","0.0-106.0","6207d5a8-9649-4221-af3d-abf3457fb2fa","","1500","250","stim","","<div class = centerbox><div class = stroop-stim style = ""color:red"">BLUE</div></div>","66,71,82","1500","test","true","82","500","incongruent","red","blue","","",""
"-1","-1","poldrack-single-stim","107","290601","0.0-107.0","6207d5a8-9649-4221-af3d-abf3457fb2fa","","500","500","fixation","","<div class = centerbox><div class = fixation>+</div></div>","none","500","test","","","","","","","","",""
"688","71","poldrack-categorize","108","293114","0.0-108.0","6207d5a8-9649-4221-af3d-abf3457fb2fa","","1500","250","stim","","<div class = centerbox><div class = stroop-stim style = ""color:green"">GREEN</div></div>","66,71,82","1500","test","true","71","500","congruent","green","green","","",""
"-1","-1","poldrack-single-stim","109","293874","0.0-109.0","6207d5a8-9649-4221-af3d-abf3457fb2fa","","500","500","fixation","","<div class = centerbox><div class = fixation>+</div></div>","none","500","test","","","","","","","","",""
"742","82","poldrack-categorize","110","296388","0.0-110.0","6207d5a8-9649-4221-af3d-abf3457fb2fa","","1500","250","stim","","<div class = centerbox><div class = stroop-stim style = ""color:red"">GREEN</div></div>","66,71,82","1500","test","true","82","500","incongruent","red","green","","",""
"-1","-1","poldrack-single-stim","111","297148","0.0-111.0","6207d5a8-9649-4221-af3d-abf3457fb2fa","","500","500","fixation","","<div class = centerbox><div class = fixation>+</div></div>","none","500","test","","","","","","","","",""
"1190","82","poldrack-categorize","112","299662","0.0-112.0","6207d5a8-9649-4221-af3d-abf3457fb2fa","","1500","250","stim","","<div class = centerbox><div class = stroop-stim style = ""color:red"">BLUE</div></div>","66,71,82","1500","test","true","82","500","incongruent","red","blue","","",""
"-1","-1","poldrack-single-stim","113","300422","0.0-113.0","6207d5a8-9649-4221-af3d-abf3457fb2fa","","500","500","fixation","","<div class = centerbox><div class = fixation>+</div></div>","none","500","test","","","","","","","","",""
"891","71","poldrack-categorize","114","302935","0.0-114.0","6207d5a8-9649-4221-af3d-abf3457fb2fa","","1500","250","stim","","<div class = centerbox><div class = stroop-stim style = ""color:green"">BLUE</div></div>","66,71,82","1500","test","true","71","500","incongruent","green","blue","","",""
"-1","-1","poldrack-single-stim","115","303696","0.0-115.0","6207d5a8-9649-4221-af3d-abf3457fb2fa","","500","500","fixation","","<div class = centerbox><div class = fixation>+</div></div>","none","500","test","","","","","","","","",""
"921","71","poldrack-categorize","116","306209","0.0-116.0","6207d5a8-9649-4221-af3d-abf3457fb2fa","","1500","250","stim","","<div class = centerbox><div class = stroop-stim style = ""color:green"">RED</div></div>","66,71,82","1500","test","true","71","500","incongruent","green","red","","",""
"-1","-1","poldrack-single-stim","117","306970","0.0-117.0","6207d5a8-9649-4221-af3d-abf3457fb2fa","","500","500","fixation","","<div class = centerbox><div class = fixation>+</div></div>","none","500","test","","","","","","","","",""
"685","71","poldrack-categorize","118","309483","0.0-118.0","6207d5a8-9649-4221-af3d-abf3457fb2fa","","1500","250","stim","","<div class = centerbox><div class = stroop-stim style = ""color:green"">GREEN</div></div>","66,71,82","1500","test","true","71","500","congruent","green","green","","",""
"-1","-1","poldrack-single-stim","119","310244","0.0-119.0","6207d5a8-9649-4221-af3d-abf3457fb2fa","","500","500","fixation","","<div class = centerbox><div class = fixation>+</div></div>","none","500","test","","","","","","","","",""
"717","66","poldrack-categorize","120","312756","0.0-120.0","6207d5a8-9649-4221-af3d-abf3457fb2fa","","1500","250","stim","","<div class = centerbox><div class = stroop-stim style = ""color:blue"">GREEN</div></div>","66,71,82","1500","test","true","66","500","incongruent","blue","green","","",""
"-1","-1","poldrack-single-stim","121","313517","0.0-121.0","6207d5a8-9649-4221-af3d-abf3457fb2fa","","500","500","fixation","","<div class = centerbox><div class = fixation>+</div></div>","none","500","test","","","","","","","","",""
"665","71","poldrack-categorize","122","316030","0.0-122.0","6207d5a8-9649-4221-af3d-abf3457fb2fa","","1500","250","stim","","<div class = centerbox><div class = stroop-stim style = ""color:green"">RED</div></div>","66,71,82","1500","test","true","71","500","incongruent","green","red","","",""
"-1","-1","poldrack-single-stim","123","316791","0.0-123.0","6207d5a8-9649-4221-af3d-abf3457fb2fa","","500","500","fixation","","<div class = centerbox><div class = fixation>+</div></div>","none","500","test","","","","","","","","",""
"634","82","poldrack-categorize","124","319304","0.0-124.0","6207d5a8-9649-4221-af3d-abf3457fb2fa","","1500","250","stim","","<div class = centerbox><div class = stroop-stim style = ""color:red"">RED</div></div>","66,71,82","1500","test","true","82","500","congruent","red","red","","",""
"-1","-1","poldrack-single-stim","125","320065","0.0-125.0","6207d5a8-9649-4221-af3d-abf3457fb2fa","","500","500","fixation","","<div class = centerbox><div class = fixation>+</div></div>","none","500","test","","","","","","","","",""
"813","82","poldrack-categorize","126","322578","0.0-126.0","6207d5a8-9649-4221-af3d-abf3457fb2fa","","1500","250","stim","","<div class = centerbox><div class = stroop-stim style = ""color:red"">BLUE</div></div>","66,71,82","1500","test","true","82","500","incongruent","red","blue","","",""
"-1","-1","poldrack-single-stim","127","323339","0.0-127.0","6207d5a8-9649-4221-af3d-abf3457fb2fa","","500","500","fixation","","<div class = centerbox><div class = fixation>+</div></div>","none","500","test","","","","","","","","",""
"565","82","poldrack-categorize","128","325852","0.0-128.0","6207d5a8-9649-4221-af3d-abf3457fb2fa","","1500","250","stim","","<div class = centerbox><div class = stroop-stim style = ""color:red"">RED</div></div>","66,71,82","1500","test","true","82","500","congruent","red","red","","",""
"-1","-1","poldrack-single-stim","129","326613","0.0-129.0","6207d5a8-9649-4221-af3d-abf3457fb2fa","","500","500","fixation","","<div class = centerbox><div class = fixation>+</div></div>","none","500","test","","","","","","","","",""
"707","82","poldrack-categorize","130","329120","0.0-130.0","6207d5a8-9649-4221-af3d-abf3457fb2fa","","1500","250","stim","","<div class = centerbox><div class = stroop-stim style = ""color:red"">GREEN</div></div>","66,71,82","1500","test","true","82","500","incongruent","red","green","","",""
"-1","-1","poldrack-single-stim","131","329881","0.0-131.0","6207d5a8-9649-4221-af3d-abf3457fb2fa","","500","500","fixation","","<div class = centerbox><div class = fixation>+</div></div>","none","500","test","","","","","","","","",""
"750","82","poldrack-categorize","132","332394","0.0-132.0","6207d5a8-9649-4221-af3d-abf3457fb2fa","","1500","250","stim","","<div class = centerbox><div class = stroop-stim style = ""color:red"">BLUE</div></div>","66,71,82","1500","test","true","82","500","incongruent","red","blue","","",""
"-1","-1","poldrack-single-stim","133","333154","0.0-133.0","6207d5a8-9649-4221-af3d-abf3457fb2fa","","500","500","fixation","","<div class = centerbox><div class = fixation>+</div></div>","none","500","test","","","","","","","","",""
"1077","66","poldrack-categorize","134","335667","0.0-134.0","6207d5a8-9649-4221-af3d-abf3457fb2fa","","1500","250","stim","","<div class = centerbox><div class = stroop-stim style = ""color:blue"">BLUE</div></div>","66,71,82","1500","test","true","66","500","congruent","blue","blue","","",""
"-1","-1","poldrack-single-stim","135","336428","0.0-135.0","6207d5a8-9649-4221-af3d-abf3457fb2fa","","500","500","fixation","","<div class = centerbox><div class = fixation>+</div></div>","none","500","test","","","","","","","","",""
"771","82","poldrack-categorize","136","338941","0.0-136.0","6207d5a8-9649-4221-af3d-abf3457fb2fa","","1500","250","stim","","<div class = centerbox><div class = stroop-stim style = ""color:red"">RED</div></div>","66,71,82","1500","test","true","82","500","congruent","red","red","","",""
"-1","-1","poldrack-single-stim","137","339702","0.0-137.0","6207d5a8-9649-4221-af3d-abf3457fb2fa","","500","500","fixation","","<div class = centerbox><div class = fixation>+</div></div>","none","500","test","","","","","","","","",""
"961","66","poldrack-categorize","138","342215","0.0-138.0","6207d5a8-9649-4221-af3d-abf3457fb2fa","","1500","250","stim","","<div class = centerbox><div class = stroop-stim style = ""color:blue"">BLUE</div></div>","66,71,82","1500","test","true","66","500","congruent","blue","blue","","",""
"-1","-1","poldrack-single-stim","139","342976","0.0-139.0","6207d5a8-9649-4221-af3d-abf3457fb2fa","","500","500","fixation","","<div class = centerbox><div class = fixation>+</div></div>","none","500","test","","","","","","","","",""
"1062","82","poldrack-categorize","140","345489","0.0-140.0","6207d5a8-9649-4221-af3d-abf3457fb2fa","","1500","250","stim","","<div class = centerbox><div class = stroop-stim style = ""color:red"">GREEN</div></div>","66,71,82","1500","test","true","82","500","incongruent","red","green","","",""
"-1","-1","poldrack-single-stim","141","346249","0.0-141.0","6207d5a8-9649-4221-af3d-abf3457fb2fa","","500","500","fixation","","<div class = centerbox><div class = fixation>+</div></div>","none","500","test","","","","","","","","",""
"1086","82","poldrack-categorize","142","348757","0.0-142.0","6207d5a8-9649-4221-af3d-abf3457fb2fa","","1500","250","stim","","<div class = centerbox><div class = stroop-stim style = ""color:red"">BLUE</div></div>","66,71,82","1500","test","true","82","500","incongruent","red","blue","","",""
"-1","-1","poldrack-single-stim","143","349517","0.0-143.0","6207d5a8-9649-4221-af3d-abf3457fb2fa","","500","500","fixation","","<div class = centerbox><div class = fixation>+</div></div>","none","500","test","","","","","","","","",""
"993","66","poldrack-categorize","144","352031","0.0-144.0","6207d5a8-9649-4221-af3d-abf3457fb2fa","","1500","250","stim","","<div class = centerbox><div class = stroop-stim style = ""color:blue"">BLUE</div></div>","66,71,82","1500","test","true","66","500","congruent","blue","blue","","",""
"-1","-1","poldrack-single-stim","145","352791","0.0-145.0","6207d5a8-9649-4221-af3d-abf3457fb2fa","","500","500","fixation","","<div class = centerbox><div class = fixation>+</div></div>","none","500","test","","","","","","","","",""
"639","82","poldrack-categorize","146","355305","0.0-146.0","6207d5a8-9649-4221-af3d-abf3457fb2fa","","1500","250","stim","","<div class = centerbox><div class = stroop-stim style = ""color:green"">GREEN</div></div>","66,71,82","1500","test","false","71","500","congruent","green","green","","",""
"-1","-1","poldrack-single-stim","147","356065","0.0-147.0","6207d5a8-9649-4221-af3d-abf3457fb2fa","","500","500","fixation","","<div class = centerbox><div class = fixation>+</div></div>","none","500","test","","","","","","","","",""
"731","71","poldrack-categorize","148","358578","0.0-148.0","6207d5a8-9649-4221-af3d-abf3457fb2fa","","1500","250","stim","","<div class = centerbox><div class = stroop-stim style = ""color:green"">GREEN</div></div>","66,71,82","1500","test","true","71","500","congruent","green","green","","",""
"-1","-1","poldrack-single-stim","149","359339","0.0-149.0","6207d5a8-9649-4221-af3d-abf3457fb2fa","","500","500","fixation","","<div class = centerbox><div class = fixation>+</div></div>","none","500","test","","","","","","","","",""
"777","82","poldrack-categorize","150","361852","0.0-150.0","6207d5a8-9649-4221-af3d-abf3457fb2fa","","1500","250","stim","","<div class = centerbox><div class = stroop-stim style = ""color:red"">RED</div></div>","66,71,82","1500","test","true","82","500","congruent","red","red","","",""
"-1","-1","poldrack-single-stim","151","362613","0.0-151.0","6207d5a8-9649-4221-af3d-abf3457fb2fa","","500","500","fixation","","<div class = centerbox><div class = fixation>+</div></div>","none","500","test","","","","","","","","",""
"792","66","poldrack-categorize","152","365127","0.0-152.0","6207d5a8-9649-4221-af3d-abf3457fb2fa","","1500","250","stim","","<div class = centerbox><div class = stroop-stim style = ""color:blue"">BLUE</div></div>","66,71,82","1500","test","true","66","500","congruent","blue","blue","","",""
"-1","-1","poldrack-single-stim","153","365881","0.0-153.0","6207d5a8-9649-4221-af3d-abf3457fb2fa","","500","500","fixation","","<div class = centerbox><div class = fixation>+</div></div>","none","500","test","","","","","","","","",""
"674","82","poldrack-categorize","154","368394","0.0-154.0","6207d5a8-9649-4221-af3d-abf3457fb2fa","","1500","250","stim","","<div class = centerbox><div class = stroop-stim style = ""color:red"">GREEN</div></div>","66,71,82","1500","test","true","82","500","incongruent","red","green","","",""
"-1","-1","poldrack-single-stim","155","369149","0.0-155.0","6207d5a8-9649-4221-af3d-abf3457fb2fa","","500","500","fixation","","<div class = centerbox><div class = fixation>+</div></div>","none","500","test","","","","","","","","",""
"758","71","poldrack-categorize","156","371662","0.0-156.0","6207d5a8-9649-4221-af3d-abf3457fb2fa","","1500","250","stim","","<div class = centerbox><div class = stroop-stim style = ""color:green"">GREEN</div></div>","66,71,82","1500","test","true","71","500","congruent","green","green","","",""
"-1","-1","poldrack-single-stim","157","372423","0.0-157.0","6207d5a8-9649-4221-af3d-abf3457fb2fa","","500","500","fixation","","<div class = centerbox><div class = fixation>+</div></div>","none","500","test","","","","","","","","",""
"870","66","poldrack-categorize","158","374936","0.0-158.0","6207d5a8-9649-4221-af3d-abf3457fb2fa","","1500","250","stim","","<div class = centerbox><div class = stroop-stim style = ""color:blue"">RED</div></div>","66,71,82","1500","test","true","66","500","incongruent","blue","red","","",""
"-1","-1","poldrack-single-stim","159","375696","0.0-159.0","6207d5a8-9649-4221-af3d-abf3457fb2fa","","500","500","fixation","","<div class = centerbox><div class = fixation>+</div></div>","none","500","test","","","","","","","","",""
"874","71","poldrack-categorize","160","378210","0.0-160.0","6207d5a8-9649-4221-af3d-abf3457fb2fa","","1500","250","stim","","<div class = centerbox><div class = stroop-stim style = ""color:green"">GREEN</div></div>","66,71,82","1500","test","true","71","500","congruent","green","green","","",""
"-1","-1","poldrack-single-stim","161","378970","0.0-161.0","6207d5a8-9649-4221-af3d-abf3457fb2fa","","500","500","fixation","","<div class = centerbox><div class = fixation>+</div></div>","none","500","test","","","","","","","","",""
"1040","66","poldrack-categorize","162","381483","0.0-162.0","6207d5a8-9649-4221-af3d-abf3457fb2fa","","1500","250","stim","","<div class = centerbox><div class = stroop-stim style = ""color:blue"">GREEN</div></div>","66,71,82","1500","test","true","66","500","incongruent","blue","green","","",""
"-1","-1","poldrack-single-stim","163","382244","0.0-163.0","6207d5a8-9649-4221-af3d-abf3457fb2fa","","500","500","fixation","","<div class = centerbox><div class = fixation>+</div></div>","none","500","test","","","","","","","","",""
"1088","82","poldrack-categorize","164","384755","0.0-164.0","6207d5a8-9649-4221-af3d-abf3457fb2fa","","1500","250","stim","","<div class = centerbox><div class = stroop-stim style = ""color:red"">GREEN</div></div>","66,71,82","1500","test","true","82","500","incongruent","red","green","","",""
"-1","-1","poldrack-single-stim","165","385512","0.0-165.0","6207d5a8-9649-4221-af3d-abf3457fb2fa","","500","500","fixation","","<div class = centerbox><div class = fixation>+</div></div>","none","500","test","","","","","","","","",""
"658","66","poldrack-categorize","166","388025","0.0-166.0","6207d5a8-9649-4221-af3d-abf3457fb2fa","","1500","250","stim","","<div class = centerbox><div class = stroop-stim style = ""color:blue"">BLUE</div></div>","66,71,82","1500","test","true","66","500","congruent","blue","blue","","",""
"-1","-1","poldrack-single-stim","167","388786","0.0-167.0","6207d5a8-9649-4221-af3d-abf3457fb2fa","","500","500","fixation","","<div class = centerbox><div class = fixation>+</div></div>","none","500","test","","","","","","","","",""
"586","82","poldrack-categorize","168","391299","0.0-168.0","6207d5a8-9649-4221-af3d-abf3457fb2fa","","1500","250","stim","","<div class = centerbox><div class = stroop-stim style = ""color:red"">RED</div></div>","66,71,82","1500","test","true","82","500","congruent","red","red","","",""
"-1","-1","poldrack-single-stim","169","392060","0.0-169.0","6207d5a8-9649-4221-af3d-abf3457fb2fa","","500","500","fixation","","<div class = centerbox><div class = fixation>+</div></div>","none","500","test","","","","","","","","",""
"1119","71","poldrack-categorize","170","394569","0.0-170.0","6207d5a8-9649-4221-af3d-abf3457fb2fa","","1500","250","stim","","<div class = centerbox><div class = stroop-stim style = ""color:green"">BLUE</div></div>","66,71,82","1500","test","true","71","500","incongruent","green","blue","","",""
"-1","-1","poldrack-single-stim","171","395327","0.0-171.0","6207d5a8-9649-4221-af3d-abf3457fb2fa","","500","500","fixation","","<div class = centerbox><div class = fixation>+</div></div>","none","500","test","","","","","","","","",""
"659","66","poldrack-categorize","172","397841","0.0-172.0","6207d5a8-9649-4221-af3d-abf3457fb2fa","","1500","250","stim","","<div class = centerbox><div class = stroop-stim style = ""color:blue"">BLUE</div></div>","66,71,82","1500","test","true","66","500","congruent","blue","blue","","",""
"-1","-1","poldrack-single-stim","173","398601","0.0-173.0","6207d5a8-9649-4221-af3d-abf3457fb2fa","","500","500","fixation","","<div class = centerbox><div class = fixation>+</div></div>","none","500","test","","","","","","","","",""
"643","82","poldrack-categorize","174","401109","0.0-174.0","6207d5a8-9649-4221-af3d-abf3457fb2fa","","1500","250","stim","","<div class = centerbox><div class = stroop-stim style = ""color:red"">RED</div></div>","66,71,82","1500","test","true","82","500","congruent","red","red","","",""
"-1","-1","poldrack-single-stim","175","401865","0.0-175.0","6207d5a8-9649-4221-af3d-abf3457fb2fa","","500","500","fixation","","<div class = centerbox><div class = fixation>+</div></div>","none","500","test","","","","","","","","",""
"1016","71","poldrack-categorize","176","404377","0.0-176.0","6207d5a8-9649-4221-af3d-abf3457fb2fa","","1500","250","stim","","<div class = centerbox><div class = stroop-stim style = ""color:green"">BLUE</div></div>","66,71,82","1500","test","true","71","500","incongruent","green","blue","","",""
"-1","-1","poldrack-single-stim","177","405137","0.0-177.0","6207d5a8-9649-4221-af3d-abf3457fb2fa","","500","500","fixation","","<div class = centerbox><div class = fixation>+</div></div>","none","500","test","","","","","","","","",""
"1040","82","poldrack-categorize","178","407651","0.0-178.0","6207d5a8-9649-4221-af3d-abf3457fb2fa","","1500","250","stim","","<div class = centerbox><div class = stroop-stim style = ""color:red"">RED</div></div>","66,71,82","1500","test","true","82","500","congruent","red","red","","",""
"-1","-1","poldrack-single-stim","179","408411","0.0-179.0","6207d5a8-9649-4221-af3d-abf3457fb2fa","","500","500","fixation","","<div class = centerbox><div class = fixation>+</div></div>","none","500","test","","","","","","","","",""
"639","82","poldrack-categorize","180","410924","0.0-180.0","6207d5a8-9649-4221-af3d-abf3457fb2fa","","1500","250","stim","","<div class = centerbox><div class = stroop-stim style = ""color:red"">RED</div></div>","66,71,82","1500","test","true","82","500","congruent","red","red","","",""
"-1","-1","poldrack-single-stim","181","411683","0.0-181.0","6207d5a8-9649-4221-af3d-abf3457fb2fa","","500","500","fixation","","<div class = centerbox><div class = fixation>+</div></div>","none","500","test","","","","","","","","",""
"877","82","poldrack-categorize","182","414198","0.0-182.0","6207d5a8-9649-4221-af3d-abf3457fb2fa","","1500","250","stim","","<div class = centerbox><div class = stroop-stim style = ""color:red"">GREEN</div></div>","66,71,82","1500","test","true","82","500","incongruent","red","green","","",""
"-1","-1","poldrack-single-stim","183","414959","0.0-183.0","6207d5a8-9649-4221-af3d-abf3457fb2fa","","500","500","fixation","","<div class = centerbox><div class = fixation>+</div></div>","none","500","test","","","","","","","","",""
"1066","66","poldrack-categorize","184","417472","0.0-184.0","6207d5a8-9649-4221-af3d-abf3457fb2fa","","1500","250","stim","","<div class = centerbox><div class = stroop-stim style = ""color:blue"">BLUE</div></div>","66,71,82","1500","test","true","66","500","congruent","blue","blue","","",""
"-1","-1","poldrack-single-stim","185","418233","0.0-185.0","6207d5a8-9649-4221-af3d-abf3457fb2fa","","500","500","fixation","","<div class = centerbox><div class = fixation>+</div></div>","none","500","test","","","","","","","","",""
"1248","66","poldrack-categorize","186","420746","0.0-186.0","6207d5a8-9649-4221-af3d-abf3457fb2fa","","1500","250","stim","","<div class = centerbox><div class = stroop-stim style = ""color:blue"">RED</div></div>","66,71,82","1500","test","true","66","500","incongruent","blue","red","","",""
"-1","-1","poldrack-single-stim","187","421506","0.0-187.0","6207d5a8-9649-4221-af3d-abf3457fb2fa","","500","500","fixation","","<div class = centerbox><div class = fixation>+</div></div>","none","500","test","","","","","","","","",""
"871","82","poldrack-categorize","188","424020","0.0-188.0","6207d5a8-9649-4221-af3d-abf3457fb2fa","","1500","250","stim","","<div class = centerbox><div class = stroop-stim style = ""color:red"">BLUE</div></div>","66,71,82","1500","test","true","82","500","incongruent","red","blue","","",""
"-1","-1","poldrack-single-stim","189","424780","0.0-189.0","6207d5a8-9649-4221-af3d-abf3457fb2fa","","500","500","fixation","","<div class = centerbox><div class = fixation>+</div></div>","none","500","test","","","","","","","","",""
"1451","71","poldrack-categorize","190","427293","0.0-190.0","6207d5a8-9649-4221-af3d-abf3457fb2fa","","1500","250","stim","","<div class = centerbox><div class = stroop-stim style = ""color:green"">GREEN</div></div>","66,71,82","1500","test","true","71","500","congruent","green","green","","",""
"-1","-1","poldrack-single-stim","191","428054","0.0-191.0","6207d5a8-9649-4221-af3d-abf3457fb2fa","","500","500","fixation","","<div class = centerbox><div class = fixation>+</div></div>","none","500","test","","","","","","","","",""
"770","66","poldrack-categorize","192","430567","0.0-192.0","6207d5a8-9649-4221-af3d-abf3457fb2fa","","1500","250","stim","","<div class = centerbox><div class = stroop-stim style = ""color:blue"">BLUE</div></div>","66,71,82","1500","test","true","66","500","congruent","blue","blue","","",""
"-1","-1","poldrack-single-stim","193","431328","0.0-193.0","6207d5a8-9649-4221-af3d-abf3457fb2fa","","500","500","fixation","","<div class = centerbox><div class = fixation>+</div></div>","none","500","test","","","","","","","","",""
"855","66","poldrack-categorize","194","433835","0.0-194.0","6207d5a8-9649-4221-af3d-abf3457fb2fa","","1500","250","stim","","<div class = centerbox><div class = stroop-stim style = ""color:blue"">RED</div></div>","66,71,82","1500","test","true","66","500","incongruent","blue","red","","",""
"-1","-1","poldrack-single-stim","195","434596","0.0-195.0","6207d5a8-9649-4221-af3d-abf3457fb2fa","","500","500","fixation","","<div class = centerbox><div class = fixation>+</div></div>","none","500","test","","","","","","","","",""
"714","82","poldrack-categorize","196","437109","0.0-196.0","6207d5a8-9649-4221-af3d-abf3457fb2fa","","1500","250","stim","","<div class = centerbox><div class = stroop-stim style = ""color:red"">RED</div></div>","66,71,82","1500","test","true","82","500","congruent","red","red","","",""
"-1","-1","poldrack-single-stim","197","437870","0.0-197.0","6207d5a8-9649-4221-af3d-abf3457fb2fa","","500","500","fixation","","<div class = centerbox><div class = fixation>+</div></div>","none","500","test","","","","","","","","",""
"571","66","poldrack-categorize","198","440383","0.0-198.0","6207d5a8-9649-4221-af3d-abf3457fb2fa","","1500","250","stim","","<div class = centerbox><div class = stroop-stim style = ""color:blue"">BLUE</div></div>","66,71,82","1500","test","true","66","500","congruent","blue","blue","","",""
"-1","-1","poldrack-single-stim","199","441143","0.0-199.0","6207d5a8-9649-4221-af3d-abf3457fb2fa","","500","500","fixation","","<div class = centerbox><div class = fixation>+</div></div>","none","500","test","","","","","","","","",""
"1192","82","poldrack-categorize","200","443657","0.0-200.0","6207d5a8-9649-4221-af3d-abf3457fb2fa","","1500","250","stim","","<div class = centerbox><div class = stroop-stim style = ""color:red"">RED</div></div>","66,71,82","1500","test","true","82","500","congruent","red","red","","",""
"-1","-1","poldrack-single-stim","201","444417","0.0-201.0","6207d5a8-9649-4221-af3d-abf3457fb2fa","","500","500","fixation","","<div class = centerbox><div class = fixation>+</div></div>","none","500","test","","","","","","","","",""
"623","71","poldrack-categorize","202","446930","0.0-202.0","6207d5a8-9649-4221-af3d-abf3457fb2fa","","1500","250","stim","","<div class = centerbox><div class = stroop-stim style = ""color:green"">GREEN</div></div>","66,71,82","1500","test","true","71","500","congruent","green","green","","",""
"-1","-1","poldrack-single-stim","203","447691","0.0-203.0","6207d5a8-9649-4221-af3d-abf3457fb2fa","","500","500","fixation","","<div class = centerbox><div class = fixation>+</div></div>","none","500","test","","","","","","","","",""
"662","71","poldrack-categorize","204","450198","0.0-204.0","6207d5a8-9649-4221-af3d-abf3457fb2fa","","1500","250","stim","","<div class = centerbox><div class = stroop-stim style = ""color:green"">GREEN</div></div>","66,71,82","1500","test","true","71","500","congruent","green","green","","",""
"-1","-1","poldrack-single-stim","205","450953","0.0-205.0","6207d5a8-9649-4221-af3d-abf3457fb2fa","","500","500","fixation","","<div class = centerbox><div class = fixation>+</div></div>","none","500","test","","","","","","","","",""
"1164","82","poldrack-categorize","206","453466","0.0-206.0","6207d5a8-9649-4221-af3d-abf3457fb2fa","","1500","250","stim","","<div class = centerbox><div class = stroop-stim style = ""color:red"">RED</div></div>","66,71,82","1500","test","true","82","500","congruent","red","red","","",""
"-1","-1","poldrack-single-stim","207","454227","0.0-207.0","6207d5a8-9649-4221-af3d-abf3457fb2fa","","500","500","fixation","","<div class = centerbox><div class = fixation>+</div></div>","none","500","test","","","","","","","","",""
"765","66","poldrack-categorize","208","456735","0.0-208.0","6207d5a8-9649-4221-af3d-abf3457fb2fa","","1500","250","stim","","<div class = centerbox><div class = stroop-stim style = ""color:blue"">BLUE</div></div>","66,71,82","1500","test","true","66","500","congruent","blue","blue","","",""
"-1","-1","poldrack-single-stim","209","457495","0.0-209.0","6207d5a8-9649-4221-af3d-abf3457fb2fa","","500","500","fixation","","<div class = centerbox><div class = fixation>+</div></div>","none","500","test","","","","","","","","",""
"886","71","poldrack-categorize","210","460008","0.0-210.0","6207d5a8-9649-4221-af3d-abf3457fb2fa","","1500","250","stim","","<div class = centerbox><div class = stroop-stim style = ""color:green"">BLUE</div></div>","66,71,82","1500","test","true","71","500","incongruent","green","blue","","",""
"-1","-1","poldrack-single-stim","211","460763","0.0-211.0","6207d5a8-9649-4221-af3d-abf3457fb2fa","","500","500","fixation","","<div class = centerbox><div class = fixation>+</div></div>","none","500","test","","","","","","","","",""
"1002","66","poldrack-categorize","212","463276","0.0-212.0","6207d5a8-9649-4221-af3d-abf3457fb2fa","","1500","250","stim","","<div class = centerbox><div class = stroop-stim style = ""color:blue"">RED</div></div>","66,71,82","1500","test","true","66","500","incongruent","blue","red","","",""
"-1","-1","poldrack-single-stim","213","464037","0.0-213.0","6207d5a8-9649-4221-af3d-abf3457fb2fa","","500","500","fixation","","<div class = centerbox><div class = fixation>+</div></div>","none","500","test","","","","","","","","",""
"984","66","poldrack-categorize","214","466550","0.0-214.0","6207d5a8-9649-4221-af3d-abf3457fb2fa","","1500","250","stim","","<div class = centerbox><div class = stroop-stim style = ""color:blue"">GREEN</div></div>","66,71,82","1500","test","true","66","500","incongruent","blue","green","","",""
"-1","-1","poldrack-single-stim","215","467311","0.0-215.0","6207d5a8-9649-4221-af3d-abf3457fb2fa","","500","500","fixation","","<div class = centerbox><div class = fixation>+</div></div>","none","500","test","","","","","","","","",""
"760","66","poldrack-categorize","216","469823","0.0-216.0","6207d5a8-9649-4221-af3d-abf3457fb2fa","","1500","250","stim","","<div class = centerbox><div class = stroop-stim style = ""color:blue"">BLUE</div></div>","66,71,82","1500","test","true","66","500","congruent","blue","blue","","",""
"-1","-1","poldrack-single-stim","217","470577","0.0-217.0","6207d5a8-9649-4221-af3d-abf3457fb2fa","","500","500","fixation","","<div class = centerbox><div class = fixation>+</div></div>","none","500","test","","","","","","","","",""
"875","82","poldrack-categorize","218","473086","0.0-218.0","6207d5a8-9649-4221-af3d-abf3457fb2fa","","1500","250","stim","","<div class = centerbox><div class = stroop-stim style = ""color:red"">BLUE</div></div>","66,71,82","1500","test","true","82","500","incongruent","red","blue","","",""
"-1","-1","poldrack-single-stim","219","473847","0.0-219.0","6207d5a8-9649-4221-af3d-abf3457fb2fa","","500","500","fixation","","<div class = centerbox><div class = fixation>+</div></div>","none","500","test","","","","","","","","",""
"1133","71","poldrack-categorize","220","476360","0.0-220.0","6207d5a8-9649-4221-af3d-abf3457fb2fa","","1500","250","stim","","<div class = centerbox><div class = stroop-stim style = ""color:green"">RED</div></div>","66,71,82","1500","test","true","71","500","incongruent","green","red","","",""
"-1","-1","poldrack-single-stim","221","477120","0.0-221.0","6207d5a8-9649-4221-af3d-abf3457fb2fa","","500","500","fixation","","<div class = centerbox><div class = fixation>+</div></div>","none","500","test","","","","","","","","",""
"894","66","poldrack-categorize","222","479634","0.0-222.0","6207d5a8-9649-4221-af3d-abf3457fb2fa","","1500","250","stim","","<div class = centerbox><div class = stroop-stim style = ""color:blue"">GREEN</div></div>","66,71,82","1500","test","true","66","500","incongruent","blue","green","","",""
"-1","-1","poldrack-single-stim","223","480394","0.0-223.0","6207d5a8-9649-4221-af3d-abf3457fb2fa","","500","500","fixation","","<div class = centerbox><div class = fixation>+</div></div>","none","500","test","","","","","","","","",""
"803","71","poldrack-categorize","224","482907","0.0-224.0","6207d5a8-9649-4221-af3d-abf3457fb2fa","","1500","250","stim","","<div class = centerbox><div class = stroop-stim style = ""color:green"">BLUE</div></div>","66,71,82","1500","test","true","71","500","incongruent","green","blue","","",""
"-1","-1","poldrack-single-stim","225","483668","0.0-225.0","6207d5a8-9649-4221-af3d-abf3457fb2fa","","500","500","fixation","","<div class = centerbox><div class = fixation>+</div></div>","none","500","test","","","","","","","","",""
"759","82","poldrack-categorize","226","486181","0.0-226.0","6207d5a8-9649-4221-af3d-abf3457fb2fa","","1500","250","stim","","<div class = centerbox><div class = stroop-stim style = ""color:red"">GREEN</div></div>","66,71,82","1500","test","true","82","500","incongruent","red","green","","",""
"-1","-1","poldrack-single-stim","227","486942","0.0-227.0","6207d5a8-9649-4221-af3d-abf3457fb2fa","","500","500","fixation","","<div class = centerbox><div class = fixation>+</div></div>","none","500","test","","","","","","","","",""
"719","82","poldrack-categorize","228","489455","0.0-228.0","6207d5a8-9649-4221-af3d-abf3457fb2fa","","1500","250","stim","","<div class = centerbox><div class = stroop-stim style = ""color:red"">BLUE</div></div>","66,71,82","1500","test","true","82","500","incongruent","red","blue","","",""
"-1","-1","poldrack-single-stim","229","490216","0.0-229.0","6207d5a8-9649-4221-af3d-abf3457fb2fa","","500","500","fixation","","<div class = centerbox><div class = fixation>+</div></div>","none","500","test","","","","","","","","",""
"1374","66","poldrack-categorize","230","492723","0.0-230.0","6207d5a8-9649-4221-af3d-abf3457fb2fa","","1500","250","stim","","<div class = centerbox><div class = stroop-stim style = ""color:blue"">RED</div></div>","66,71,82","1500","test","true","66","500","incongruent","blue","red","","",""
"-1","-1","poldrack-single-stim","231","493484","0.0-231.0","6207d5a8-9649-4221-af3d-abf3457fb2fa","","500","500","fixation","","<div class = centerbox><div class = fixation>+</div></div>","none","500","test","","","","","","","","",""
"664","66","poldrack-categorize","232","495995","0.0-232.0","6207d5a8-9649-4221-af3d-abf3457fb2fa","","1500","250","stim","","<div class = centerbox><div class = stroop-stim style = ""color:blue"">BLUE</div></div>","66,71,82","1500","test","true","66","500","congruent","blue","blue","","",""
"-1","-1","poldrack-single-stim","233","496752","0.0-233.0","6207d5a8-9649-4221-af3d-abf3457fb2fa","","500","500","fixation","","<div class = centerbox><div class = fixation>+</div></div>","none","500","test","","","","","","","","",""
"1004","66","poldrack-categorize","234","499265","0.0-234.0","6207d5a8-9649-4221-af3d-abf3457fb2fa","","1500","250","stim","","<div class = centerbox><div class = stroop-stim style = ""color:blue"">GREEN</div></div>","66,71,82","1500","test","true","66","500","incongruent","blue","green","","",""
"-1","-1","poldrack-single-stim","235","500020","0.0-235.0","6207d5a8-9649-4221-af3d-abf3457fb2fa","","500","500","fixation","","<div class = centerbox><div class = fixation>+</div></div>","none","500","test","","","","","","","","",""
"751","71","poldrack-categorize","236","502533","0.0-236.0","6207d5a8-9649-4221-af3d-abf3457fb2fa","","1500","250","stim","","<div class = centerbox><div class = stroop-stim style = ""color:green"">GREEN</div></div>","66,71,82","1500","test","true","71","500","congruent","green","green","","",""
"-1","-1","poldrack-single-stim","237","503293","0.0-237.0","6207d5a8-9649-4221-af3d-abf3457fb2fa","","500","500","fixation","","<div class = centerbox><div class = fixation>+</div></div>","none","500","test","","","","","","","","",""
"719","82","poldrack-categorize","238","505807","0.0-238.0","6207d5a8-9649-4221-af3d-abf3457fb2fa","","1500","250","stim","","<div class = centerbox><div class = stroop-stim style = ""color:red"">RED</div></div>","66,71,82","1500","test","true","82","500","congruent","red","red","","",""
"-1","-1","poldrack-single-stim","239","506567","0.0-239.0","6207d5a8-9649-4221-af3d-abf3457fb2fa","","500","500","fixation","","<div class = centerbox><div class = fixation>+</div></div>","none","500","test","","","","","","","","",""
"765","66","poldrack-categorize","240","509075","0.0-240.0","6207d5a8-9649-4221-af3d-abf3457fb2fa","","1500","250","stim","","<div class = centerbox><div class = stroop-stim style = ""color:blue"">RED</div></div>","66,71,82","1500","test","true","66","500","incongruent","blue","red","","",""
"-1","-1","poldrack-single-stim","241","509835","0.0-241.0","6207d5a8-9649-4221-af3d-abf3457fb2fa","","500","500","fixation","","<div class = centerbox><div class = fixation>+</div></div>","none","500","test","","","","","","","","",""
"1193","71","poldrack-categorize","242","512348","0.0-242.0","6207d5a8-9649-4221-af3d-abf3457fb2fa","","1500","250","stim","","<div class = centerbox><div class = stroop-stim style = ""color:green"">BLUE</div></div>","66,71,82","1500","test","true","71","500","incongruent","green","blue","","",""
"-1","-1","poldrack-single-stim","243","513109","0.0-243.0","6207d5a8-9649-4221-af3d-abf3457fb2fa","","500","500","fixation","","<div class = centerbox><div class = fixation>+</div></div>","none","500","test","","","","","","","","",""
"863","66","poldrack-categorize","244","515622","0.0-244.0","6207d5a8-9649-4221-af3d-abf3457fb2fa","","1500","250","stim","","<div class = centerbox><div class = stroop-stim style = ""color:blue"">GREEN</div></div>","66,71,82","1500","test","true","66","500","incongruent","blue","green","","",""
"126731","","survey-text","245","642621","0.0-246.0","6207d5a8-9649-4221-af3d-abf3457fb2fa","","","","post task questions","","","","","","","","","","","","{""Q0"":""I was asked to distinguish 3 different colors ( green, red, blue) the task was to determine the color of the ink rather than the word itself. for example the word might say 'green\"" but the color of the ink might be in blue so i was told to click on the color of the ink, as in r was for red ink b was for blue ink and g was for green colored ink. "",""Q1"":""""}","",""
"-1","-1","poldrack-text","246","823615","0.0-247.0","6207d5a8-9649-4221-af3d-abf3457fb2fa","<div class = centerbox><p class = center-block-text>Thanks for completing this task!</p><p class = center-block-text>Press <strong>enter</strong> to continue.</p></div>","180000","0","end","","","","","","","","","","","","","stroop","true"
"229713","13","text","247","1053362","0.0-248.0","6207d5a8-9649-4221-af3d-abf3457fb2fa","","","","","","","","","","","","","","","","","",""
