rt,key_press,trial_type,trial_index,time_elapsed,internal_node_id,subject,text,block_duration,timing_post_trial,trial_id,view_history,stimulus,possible_responses,stim_duration,exp_stage,correct,correct_response,feedback_duration,condition,stim_color,stim_word,responses,exp_id,credit_var,stim_place,stim_id1865,13,text,0,1867,0.0-0.0,ad1d6052-53af-4573-a104-df76f683842d,,,,,,,,,,,,,,,,,,,,8104,13,poldrack-text,1,10977,0.0-1.0-0.0,ad1d6052-53af-4573-a104-df76f683842d,<div class = centerbox><p class = center-block-text>Welcome to the experiment. This experiment will take about 8 minutes. Press <strong>enter</strong> to begin.</p></div>,8104,0,instruction,,,,,,,,,,,,,,,,29835,,poldrack-instructions,2,40814,0.0-1.0-1.0,ad1d6052-53af-4573-a104-df76f683842d,,,,instruction,"[{""page_index"":0,""viewing_time"":29835}]",,,,,,,,,,,,,,,2702,13,poldrack-text,3,44518,0.0-2.0,ad1d6052-53af-4573-a104-df76f683842d,"<div class = centerbox><p class = block-text>We will start with a few practice trials. Remember, press the key corresponding to the <strong>ink</strong> color of the word: ""r"" for words colored red, ""b"" for words colored blue, and ""g"" for words colored green.</p><p class = block-text>Press <strong>enter</strong> to begin practice.</p></div>",2702,1000,practice_intro,,,,,,,,,,,,,,,,-1,-1,poldrack-single-stim,4,46030,0.0-3.0,ad1d6052-53af-4573-a104-df76f683842d,,500,500,fixation,,<div class = centerbox><div class = fixation>+</div></div>,none,500,practice,,,,,,,,,,,784,82,poldrack-categorize,5,48539,0.0-4.0,ad1d6052-53af-4573-a104-df76f683842d,,1500,250,stim,,"<div class = centerbox><div class = stroop-stim style = ""color:red"">GREEN</div></div>","66,71,82",1500,practice,TRUE,82,500,incongruent,red,green,,,,,-1,-1,poldrack-single-stim,6,49297,0.0-5.0,ad1d6052-53af-4573-a104-df76f683842d,,500,500,fixation,,<div class = centerbox><div class = fixation>+</div></div>,none,500,practice,,,,,,,,,,,1131,66,poldrack-categorize,7,51810,0.0-6.0,ad1d6052-53af-4573-a104-df76f683842d,,1500,250,stim,,"<div class = centerbox><div class = stroop-stim style = ""color:blue"">GREEN</div></div>","66,71,82",1500,practice,TRUE,66,500,incongruent,blue,green,,,,,-1,-1,poldrack-single-stim,8,52565,0.0-7.0,ad1d6052-53af-4573-a104-df76f683842d,,500,500,fixation,,<div class = centerbox><div class = fixation>+</div></div>,none,500,practice,,,,,,,,,,,783,71,poldrack-categorize,9,55078,0.0-8.0,ad1d6052-53af-4573-a104-df76f683842d,,1500,250,stim,,"<div class = centerbox><div class = stroop-stim style = ""color:green"">GREEN</div></div>","66,71,82",1500,practice,TRUE,71,500,congruent,green,green,,,,,-1,-1,poldrack-single-stim,10,55839,0.0-9.0,ad1d6052-53af-4573-a104-df76f683842d,,500,500,fixation,,<div class = centerbox><div class = fixation>+</div></div>,none,500,practice,,,,,,,,,,,645,71,poldrack-categorize,11,58352,0.0-10.0,ad1d6052-53af-4573-a104-df76f683842d,,1500,250,stim,,"<div class = centerbox><div class = stroop-stim style = ""color:green"">GREEN</div></div>","66,71,82",1500,practice,TRUE,71,500,congruent,green,green,,,,,-1,-1,poldrack-single-stim,12,59106,0.0-11.0,ad1d6052-53af-4573-a104-df76f683842d,,500,500,fixation,,<div class = centerbox><div class = fixation>+</div></div>,none,500,practice,,,,,,,,,,,409,82,poldrack-categorize,13,61620,0.0-12.0,ad1d6052-53af-4573-a104-df76f683842d,,1500,250,stim,,"<div class = centerbox><div class = stroop-stim style = ""color:red"">RED</div></div>","66,71,82",1500,practice,TRUE,82,500,congruent,red,red,,,,,-1,-1,poldrack-single-stim,14,62380,0.0-13.0,ad1d6052-53af-4573-a104-df76f683842d,,500,500,fixation,,<div class = centerbox><div class = fixation>+</div></div>,none,500,practice,,,,,,,,,,,863,71,poldrack-categorize,15,64893,0.0-14.0,ad1d6052-53af-4573-a104-df76f683842d,,1500,250,stim,,"<div class = centerbox><div class = stroop-stim style = ""color:green"">BLUE</div></div>","66,71,82",1500,practice,TRUE,71,500,incongruent,green,blue,,,,,-1,-1,poldrack-single-stim,16,65654,0.0-15.0,ad1d6052-53af-4573-a104-df76f683842d,,500,500,fixation,,<div class = centerbox><div class = fixation>+</div></div>,none,500,practice,,,,,,,,,,,725,66,poldrack-categorize,17,68167,0.0-16.0,ad1d6052-53af-4573-a104-df76f683842d,,1500,250,stim,,"<div class = centerbox><div class = stroop-stim style = ""color:blue"">BLUE</div></div>","66,71,82",1500,practice,TRUE,66,500,congruent,blue,blue,,,,,-1,-1,poldrack-single-stim,18,68928,0.0-17.0,ad1d6052-53af-4573-a104-df76f683842d,,500,500,fixation,,<div class = centerbox><div class = fixation>+</div></div>,none,500,practice,,,,,,,,,,,-1,-1,poldrack-categorize,19,71441,0.0-18.0,ad1d6052-53af-4573-a104-df76f683842d,,1500,250,stim,,"<div class = centerbox><div class = stroop-stim style = ""color:blue"">GREEN</div></div>","66,71,82",1500,practice,FALSE,66,500,incongruent,blue,green,,,,,-1,-1,poldrack-single-stim,20,72202,0.0-19.0,ad1d6052-53af-4573-a104-df76f683842d,,500,500,fixation,,<div class = centerbox><div class = fixation>+</div></div>,none,500,practice,,,,,,,,,,,969,66,poldrack-categorize,21,74715,0.0-20.0,ad1d6052-53af-4573-a104-df76f683842d,,1500,250,stim,,"<div class = centerbox><div class = stroop-stim style = ""color:blue"">RED</div></div>","66,71,82",1500,practice,TRUE,66,500,incongruent,blue,red,,,,,-1,-1,poldrack-single-stim,22,75475,0.0-21.0,ad1d6052-53af-4573-a104-df76f683842d,,500,500,fixation,,<div class = centerbox><div class = fixation>+</div></div>,none,500,practice,,,,,,,,,,,842,82,poldrack-categorize,23,77983,0.0-22.0,ad1d6052-53af-4573-a104-df76f683842d,,1500,250,stim,,"<div class = centerbox><div class = stroop-stim style = ""color:red"">BLUE</div></div>","66,71,82",1500,practice,TRUE,82,500,incongruent,red,blue,,,,,-1,-1,poldrack-single-stim,24,78743,0.0-23.0,ad1d6052-53af-4573-a104-df76f683842d,,500,500,fixation,,<div class = centerbox><div class = fixation>+</div></div>,none,500,practice,,,,,,,,,,,842,66,poldrack-categorize,25,81255,0.0-24.0,ad1d6052-53af-4573-a104-df76f683842d,,1500,250,stim,,"<div class = centerbox><div class = stroop-stim style = ""color:blue"">BLUE</div></div>","66,71,82",1500,practice,TRUE,66,500,congruent,blue,blue,,,,,-1,-1,poldrack-single-stim,26,82011,0.0-25.0,ad1d6052-53af-4573-a104-df76f683842d,,500,500,fixation,,<div class = centerbox><div class = fixation>+</div></div>,none,500,practice,,,,,,,,,,,711,71,poldrack-categorize,27,84522,0.0-26.0,ad1d6052-53af-4573-a104-df76f683842d,,1500,250,stim,,"<div class = centerbox><div class = stroop-stim style = ""color:green"">RED</div></div>","66,71,82",1500,practice,TRUE,71,500,incongruent,green,red,,,,,-1,-1,poldrack-single-stim,28,85279,0.0-27.0,ad1d6052-53af-4573-a104-df76f683842d,,500,500,fixation,,<div class = centerbox><div class = fixation>+</div></div>,none,500,practice,,,,,,,,,,,522,82,poldrack-categorize,29,87792,0.0-28.0,ad1d6052-53af-4573-a104-df76f683842d,,1500,250,stim,,"<div class = centerbox><div class = stroop-stim style = ""color:red"">RED</div></div>","66,71,82",1500,practice,TRUE,82,500,congruent,red,red,,,,,-1,-1,poldrack-single-stim,30,88547,0.0-29.0,ad1d6052-53af-4573-a104-df76f683842d,,500,500,fixation,,<div class = centerbox><div class = fixation>+</div></div>,none,500,practice,,,,,,,,,,,630,71,poldrack-categorize,31,91060,0.0-30.0,ad1d6052-53af-4573-a104-df76f683842d,,1500,250,stim,,"<div class = centerbox><div class = stroop-stim style = ""color:green"">RED</div></div>","66,71,82",1500,practice,TRUE,71,500,incongruent,green,red,,,,,-1,-1,poldrack-single-stim,32,91821,0.0-31.0,ad1d6052-53af-4573-a104-df76f683842d,,500,500,fixation,,<div class = centerbox><div class = fixation>+</div></div>,none,500,practice,,,,,,,,,,,1028,66,poldrack-categorize,33,94334,0.0-32.0,ad1d6052-53af-4573-a104-df76f683842d,,1500,250,stim,,"<div class = centerbox><div class = stroop-stim style = ""color:blue"">RED</div></div>","66,71,82",1500,practice,TRUE,66,500,incongruent,blue,red,,,,,-1,-1,poldrack-single-stim,34,95095,0.0-33.0,ad1d6052-53af-4573-a104-df76f683842d,,500,500,fixation,,<div class = centerbox><div class = fixation>+</div></div>,none,500,practice,,,,,,,,,,,610,82,poldrack-categorize,35,97608,0.0-34.0,ad1d6052-53af-4573-a104-df76f683842d,,1500,250,stim,,"<div class = centerbox><div class = stroop-stim style = ""color:red"">RED</div></div>","66,71,82",1500,practice,TRUE,82,500,congruent,red,red,,,,,-1,-1,poldrack-single-stim,36,98368,0.0-35.0,ad1d6052-53af-4573-a104-df76f683842d,,500,500,fixation,,<div class = centerbox><div class = fixation>+</div></div>,none,500,practice,,,,,,,,,,,610,71,poldrack-categorize,37,100882,0.0-36.0,ad1d6052-53af-4573-a104-df76f683842d,,1500,250,stim,,"<div class = centerbox><div class = stroop-stim style = ""color:green"">GREEN</div></div>","66,71,82",1500,practice,TRUE,71,500,congruent,green,green,,,,,-1,-1,poldrack-single-stim,38,101642,0.0-37.0,ad1d6052-53af-4573-a104-df76f683842d,,500,500,fixation,,<div class = centerbox><div class = fixation>+</div></div>,none,500,practice,,,,,,,,,,,662,82,poldrack-categorize,39,104151,0.0-38.0,ad1d6052-53af-4573-a104-df76f683842d,,1500,250,stim,,"<div class = centerbox><div class = stroop-stim style = ""color:red"">RED</div></div>","66,71,82",1500,practice,TRUE,82,500,congruent,red,red,,,,,-1,-1,poldrack-single-stim,40,104910,0.0-39.0,ad1d6052-53af-4573-a104-df76f683842d,,500,500,fixation,,<div class = centerbox><div class = fixation>+</div></div>,none,500,practice,,,,,,,,,,,1170,71,poldrack-categorize,41,107418,0.0-40.0,ad1d6052-53af-4573-a104-df76f683842d,,1500,250,stim,,"<div class = centerbox><div class = stroop-stim style = ""color:blue"">BLUE</div></div>","66,71,82",1500,practice,FALSE,66,500,congruent,blue,blue,,,,,-1,-1,poldrack-single-stim,42,108172,0.0-41.0,ad1d6052-53af-4573-a104-df76f683842d,,500,500,fixation,,<div class = centerbox><div class = fixation>+</div></div>,none,500,practice,,,,,,,,,,,903,82,poldrack-categorize,43,110680,0.0-42.0,ad1d6052-53af-4573-a104-df76f683842d,,1500,250,stim,,"<div class = centerbox><div class = stroop-stim style = ""color:red"">BLUE</div></div>","66,71,82",1500,practice,TRUE,82,500,incongruent,red,blue,,,,,-1,-1,poldrack-single-stim,44,111440,0.0-43.0,ad1d6052-53af-4573-a104-df76f683842d,,500,500,fixation,,<div class = centerbox><div class = fixation>+</div></div>,none,500,practice,,,,,,,,,,,991,82,poldrack-categorize,45,113954,0.0-44.0,ad1d6052-53af-4573-a104-df76f683842d,,1500,250,stim,,"<div class = centerbox><div class = stroop-stim style = ""color:red"">GREEN</div></div>","66,71,82",1500,practice,TRUE,82,500,incongruent,red,green,,,,,-1,-1,poldrack-single-stim,46,114714,0.0-45.0,ad1d6052-53af-4573-a104-df76f683842d,,500,500,fixation,,<div class = centerbox><div class = fixation>+</div></div>,none,500,practice,,,,,,,,,,,-1,-1,poldrack-categorize,47,117227,0.0-46.0,ad1d6052-53af-4573-a104-df76f683842d,,1500,250,stim,,"<div class = centerbox><div class = stroop-stim style = ""color:blue"">BLUE</div></div>","66,71,82",1500,practice,FALSE,66,500,congruent,blue,blue,,,,,-1,-1,poldrack-single-stim,48,117982,0.0-47.0,ad1d6052-53af-4573-a104-df76f683842d,,500,500,fixation,,<div class = centerbox><div class = fixation>+</div></div>,none,500,practice,,,,,,,,,,,739,71,poldrack-categorize,49,120489,0.0-48.0,ad1d6052-53af-4573-a104-df76f683842d,,1500,250,stim,,"<div class = centerbox><div class = stroop-stim style = ""color:green"">GREEN</div></div>","66,71,82",1500,practice,TRUE,71,500,congruent,green,green,,,,,-1,-1,poldrack-single-stim,50,121250,0.0-49.0,ad1d6052-53af-4573-a104-df76f683842d,,500,500,fixation,,<div class = centerbox><div class = fixation>+</div></div>,none,500,practice,,,,,,,,,,,916,71,poldrack-categorize,51,123763,0.0-50.0,ad1d6052-53af-4573-a104-df76f683842d,,1500,250,stim,,"<div class = centerbox><div class = stroop-stim style = ""color:green"">BLUE</div></div>","66,71,82",1500,practice,TRUE,71,500,incongruent,green,blue,,,,,2469,13,poldrack-text,52,126487,0.0-52.0,ad1d6052-53af-4573-a104-df76f683842d,<div class = centerbox><p class = center-block-text>We will now start the test. Respond exactly like you did during practice.</p><p class = center-block-text>Press <strong>enter</strong> to begin the test.</p></div>,2469,1000,test_intro,,,,,,,,,,,,,,,,-1,-1,poldrack-single-stim,53,127995,0.0-53.0,ad1d6052-53af-4573-a104-df76f683842d,,500,500,fixation,,<div class = centerbox><div class = fixation>+</div></div>,none,500,test,,,,,,,,,,,431,82,poldrack-categorize,54,130502,0.0-54.0,ad1d6052-53af-4573-a104-df76f683842d,,1500,250,stim,,"<div class = centerbox><div class = stroop-stim style = ""color:red"">RED</div></div>","66,71,82",1500,test,TRUE,82,500,congruent,red,red,,,,,-1,-1,poldrack-single-stim,55,131263,0.0-55.0,ad1d6052-53af-4573-a104-df76f683842d,,500,500,fixation,,<div class = centerbox><div class = fixation>+</div></div>,none,500,test,,,,,,,,,,,630,66,poldrack-categorize,56,133776,0.0-56.0,ad1d6052-53af-4573-a104-df76f683842d,,1500,250,stim,,"<div class = centerbox><div class = stroop-stim style = ""color:blue"">BLUE</div></div>","66,71,82",1500,test,TRUE,66,500,congruent,blue,blue,,,,,-1,-1,poldrack-single-stim,57,134534,0.0-57.0,ad1d6052-53af-4573-a104-df76f683842d,,500,500,fixation,,<div class = centerbox><div class = fixation>+</div></div>,none,500,test,,,,,,,,,,,833,66,poldrack-categorize,58,137044,0.0-58.0,ad1d6052-53af-4573-a104-df76f683842d,,1500,250,stim,,"<div class = centerbox><div class = stroop-stim style = ""color:blue"">RED</div></div>","66,71,82",1500,test,TRUE,66,500,incongruent,blue,red,,,,,-1,-1,poldrack-single-stim,59,137804,0.0-59.0,ad1d6052-53af-4573-a104-df76f683842d,,500,500,fixation,,<div class = centerbox><div class = fixation>+</div></div>,none,500,test,,,,,,,,,,,785,82,poldrack-categorize,60,140318,0.0-60.0,ad1d6052-53af-4573-a104-df76f683842d,,1500,250,stim,,"<div class = centerbox><div class = stroop-stim style = ""color:red"">GREEN</div></div>","66,71,82",1500,test,TRUE,82,500,incongruent,red,green,,,,,-1,-1,poldrack-single-stim,61,141075,0.0-61.0,ad1d6052-53af-4573-a104-df76f683842d,,500,500,fixation,,<div class = centerbox><div class = fixation>+</div></div>,none,500,test,,,,,,,,,,,698,71,poldrack-categorize,62,143586,0.0-62.0,ad1d6052-53af-4573-a104-df76f683842d,,1500,250,stim,,"<div class = centerbox><div class = stroop-stim style = ""color:green"">GREEN</div></div>","66,71,82",1500,test,TRUE,71,500,congruent,green,green,,,,,-1,-1,poldrack-single-stim,63,144346,0.0-63.0,ad1d6052-53af-4573-a104-df76f683842d,,500,500,fixation,,<div class = centerbox><div class = fixation>+</div></div>,none,500,test,,,,,,,,,,,602,82,poldrack-categorize,64,146859,0.0-64.0,ad1d6052-53af-4573-a104-df76f683842d,,1500,250,stim,,"<div class = centerbox><div class = stroop-stim style = ""color:red"">RED</div></div>","66,71,82",1500,test,TRUE,82,500,congruent,red,red,,,,,-1,-1,poldrack-single-stim,65,147620,0.0-65.0,ad1d6052-53af-4573-a104-df76f683842d,,500,500,fixation,,<div class = centerbox><div class = fixation>+</div></div>,none,500,test,,,,,,,,,,,609,71,poldrack-categorize,66,150133,0.0-66.0,ad1d6052-53af-4573-a104-df76f683842d,,1500,250,stim,,"<div class = centerbox><div class = stroop-stim style = ""color:green"">GREEN</div></div>","66,71,82",1500,test,TRUE,71,500,congruent,green,green,,,,,-1,-1,poldrack-single-stim,67,150894,0.0-67.0,ad1d6052-53af-4573-a104-df76f683842d,,500,500,fixation,,<div class = centerbox><div class = fixation>+</div></div>,none,500,test,,,,,,,,,,,759,66,poldrack-categorize,68,153407,0.0-68.0,ad1d6052-53af-4573-a104-df76f683842d,,1500,250,stim,,"<div class = centerbox><div class = stroop-stim style = ""color:blue"">BLUE</div></div>","66,71,82",1500,test,TRUE,66,500,congruent,blue,blue,,,,,-1,-1,poldrack-single-stim,69,154166,0.0-69.0,ad1d6052-53af-4573-a104-df76f683842d,,500,500,fixation,,<div class = centerbox><div class = fixation>+</div></div>,none,500,test,,,,,,,,,,,668,71,poldrack-categorize,70,156680,0.0-70.0,ad1d6052-53af-4573-a104-df76f683842d,,1500,250,stim,,"<div class = centerbox><div class = stroop-stim style = ""color:green"">GREEN</div></div>","66,71,82",1500,test,TRUE,71,500,congruent,green,green,,,,,-1,-1,poldrack-single-stim,71,157441,0.0-71.0,ad1d6052-53af-4573-a104-df76f683842d,,500,500,fixation,,<div class = centerbox><div class = fixation>+</div></div>,none,500,test,,,,,,,,,,,914,71,poldrack-categorize,72,159954,0.0-72.0,ad1d6052-53af-4573-a104-df76f683842d,,1500,250,stim,,"<div class = centerbox><div class = stroop-stim style = ""color:green"">RED</div></div>","66,71,82",1500,test,TRUE,71,500,incongruent,green,red,,,,,-1,-1,poldrack-single-stim,73,160715,0.0-73.0,ad1d6052-53af-4573-a104-df76f683842d,,500,500,fixation,,<div class = centerbox><div class = fixation>+</div></div>,none,500,test,,,,,,,,,,,584,66,poldrack-categorize,74,163228,0.0-74.0,ad1d6052-53af-4573-a104-df76f683842d,,1500,250,stim,,"<div class = centerbox><div class = stroop-stim style = ""color:blue"">BLUE</div></div>","66,71,82",1500,test,TRUE,66,500,congruent,blue,blue,,,,,-1,-1,poldrack-single-stim,75,163989,0.0-75.0,ad1d6052-53af-4573-a104-df76f683842d,,500,500,fixation,,<div class = centerbox><div class = fixation>+</div></div>,none,500,test,,,,,,,,,,,552,66,poldrack-categorize,76,166502,0.0-76.0,ad1d6052-53af-4573-a104-df76f683842d,,1500,250,stim,,"<div class = centerbox><div class = stroop-stim style = ""color:blue"">BLUE</div></div>","66,71,82",1500,test,TRUE,66,500,congruent,blue,blue,,,,,-1,-1,poldrack-single-stim,77,167263,0.0-77.0,ad1d6052-53af-4573-a104-df76f683842d,,500,500,fixation,,<div class = centerbox><div class = fixation>+</div></div>,none,500,test,,,,,,,,,,,948,66,poldrack-categorize,78,169776,0.0-78.0,ad1d6052-53af-4573-a104-df76f683842d,,1500,250,stim,,"<div class = centerbox><div class = stroop-stim style = ""color:blue"">RED</div></div>","66,71,82",1500,test,TRUE,66,500,incongruent,blue,red,,,,,-1,-1,poldrack-single-stim,79,170533,0.0-79.0,ad1d6052-53af-4573-a104-df76f683842d,,500,500,fixation,,<div class = centerbox><div class = fixation>+</div></div>,none,500,test,,,,,,,,,,,728,71,poldrack-categorize,80,173042,0.0-80.0,ad1d6052-53af-4573-a104-df76f683842d,,1500,250,stim,,"<div class = centerbox><div class = stroop-stim style = ""color:green"">BLUE</div></div>","66,71,82",1500,test,TRUE,71,500,incongruent,green,blue,,,,,-1,-1,poldrack-single-stim,81,173798,0.0-81.0,ad1d6052-53af-4573-a104-df76f683842d,,500,500,fixation,,<div class = centerbox><div class = fixation>+</div></div>,none,500,test,,,,,,,,,,,844,66,poldrack-categorize,82,176312,0.0-82.0,ad1d6052-53af-4573-a104-df76f683842d,,1500,250,stim,,"<div class = centerbox><div class = stroop-stim style = ""color:blue"">BLUE</div></div>","66,71,82",1500,test,TRUE,66,500,congruent,blue,blue,,,,,-1,-1,poldrack-single-stim,83,177066,0.0-83.0,ad1d6052-53af-4573-a104-df76f683842d,,500,500,fixation,,<div class = centerbox><div class = fixation>+</div></div>,none,500,test,,,,,,,,,,,611,71,poldrack-categorize,84,179574,0.0-84.0,ad1d6052-53af-4573-a104-df76f683842d,,1500,250,stim,,"<div class = centerbox><div class = stroop-stim style = ""color:green"">GREEN</div></div>","66,71,82",1500,test,TRUE,71,500,congruent,green,green,,,,,-1,-1,poldrack-single-stim,85,180334,0.0-85.0,ad1d6052-53af-4573-a104-df76f683842d,,500,500,fixation,,<div class = centerbox><div class = fixation>+</div></div>,none,500,test,,,,,,,,,,,907,82,poldrack-categorize,86,182847,0.0-86.0,ad1d6052-53af-4573-a104-df76f683842d,,1500,250,stim,,"<div class = centerbox><div class = stroop-stim style = ""color:red"">BLUE</div></div>","66,71,82",1500,test,TRUE,82,500,incongruent,red,blue,,,,,-1,-1,poldrack-single-stim,87,183609,0.0-87.0,ad1d6052-53af-4573-a104-df76f683842d,,500,500,fixation,,<div class = centerbox><div class = fixation>+</div></div>,none,500,test,,,,,,,,,,,746,71,poldrack-categorize,88,186121,0.0-88.0,ad1d6052-53af-4573-a104-df76f683842d,,1500,250,stim,,"<div class = centerbox><div class = stroop-stim style = ""color:green"">BLUE</div></div>","66,71,82",1500,test,TRUE,71,500,incongruent,green,blue,,,,,-1,-1,poldrack-single-stim,89,186876,0.0-89.0,ad1d6052-53af-4573-a104-df76f683842d,,500,500,fixation,,<div class = centerbox><div class = fixation>+</div></div>,none,500,test,,,,,,,,,,,693,71,poldrack-categorize,90,189389,0.0-90.0,ad1d6052-53af-4573-a104-df76f683842d,,1500,250,stim,,"<div class = centerbox><div class = stroop-stim style = ""color:green"">RED</div></div>","66,71,82",1500,test,TRUE,71,500,incongruent,green,red,,,,,-1,-1,poldrack-single-stim,91,190150,0.0-91.0,ad1d6052-53af-4573-a104-df76f683842d,,500,500,fixation,,<div class = centerbox><div class = fixation>+</div></div>,none,500,test,,,,,,,,,,,907,66,poldrack-categorize,92,192663,0.0-92.0,ad1d6052-53af-4573-a104-df76f683842d,,1500,250,stim,,"<div class = centerbox><div class = stroop-stim style = ""color:blue"">GREEN</div></div>","66,71,82",1500,test,TRUE,66,500,incongruent,blue,green,,,,,-1,-1,poldrack-single-stim,93,193423,0.0-93.0,ad1d6052-53af-4573-a104-df76f683842d,,500,500,fixation,,<div class = centerbox><div class = fixation>+</div></div>,none,500,test,,,,,,,,,,,817,71,poldrack-categorize,94,195936,0.0-94.0,ad1d6052-53af-4573-a104-df76f683842d,,1500,250,stim,,"<div class = centerbox><div class = stroop-stim style = ""color:green"">BLUE</div></div>","66,71,82",1500,test,TRUE,71,500,incongruent,green,blue,,,,,-1,-1,poldrack-single-stim,95,196691,0.0-95.0,ad1d6052-53af-4573-a104-df76f683842d,,500,500,fixation,,<div class = centerbox><div class = fixation>+</div></div>,none,500,test,,,,,,,,,,,783,71,poldrack-categorize,96,199205,0.0-96.0,ad1d6052-53af-4573-a104-df76f683842d,,1500,250,stim,,"<div class = centerbox><div class = stroop-stim style = ""color:green"">BLUE</div></div>","66,71,82",1500,test,TRUE,71,500,incongruent,green,blue,,,,,-1,-1,poldrack-single-stim,97,199965,0.0-97.0,ad1d6052-53af-4573-a104-df76f683842d,,500,500,fixation,,<div class = centerbox><div class = fixation>+</div></div>,none,500,test,,,,,,,,,,,587,71,poldrack-categorize,98,202478,0.0-98.0,ad1d6052-53af-4573-a104-df76f683842d,,1500,250,stim,,"<div class = centerbox><div class = stroop-stim style = ""color:green"">BLUE</div></div>","66,71,82",1500,test,TRUE,71,500,incongruent,green,blue,,,,,-1,-1,poldrack-single-stim,99,203239,0.0-99.0,ad1d6052-53af-4573-a104-df76f683842d,,500,500,fixation,,<div class = centerbox><div class = fixation>+</div></div>,none,500,test,,,,,,,,,,,842,71,poldrack-categorize,100,205752,0.0-100.0,ad1d6052-53af-4573-a104-df76f683842d,,1500,250,stim,,"<div class = centerbox><div class = stroop-stim style = ""color:green"">GREEN</div></div>","66,71,82",1500,test,TRUE,71,500,congruent,green,green,,,,,-1,-1,poldrack-single-stim,101,206513,0.0-101.0,ad1d6052-53af-4573-a104-df76f683842d,,500,500,fixation,,<div class = centerbox><div class = fixation>+</div></div>,none,500,test,,,,,,,,,,,767,66,poldrack-categorize,102,209026,0.0-102.0,ad1d6052-53af-4573-a104-df76f683842d,,1500,250,stim,,"<div class = centerbox><div class = stroop-stim style = ""color:blue"">GREEN</div></div>","66,71,82",1500,test,TRUE,66,500,incongruent,blue,green,,,,,-1,-1,poldrack-single-stim,103,209782,0.0-103.0,ad1d6052-53af-4573-a104-df76f683842d,,500,500,fixation,,<div class = centerbox><div class = fixation>+</div></div>,none,500,test,,,,,,,,,,,419,82,poldrack-categorize,104,212294,0.0-104.0,ad1d6052-53af-4573-a104-df76f683842d,,1500,250,stim,,"<div class = centerbox><div class = stroop-stim style = ""color:red"">RED</div></div>","66,71,82",1500,test,TRUE,82,500,congruent,red,red,,,,,-1,-1,poldrack-single-stim,105,213054,0.0-105.0,ad1d6052-53af-4573-a104-df76f683842d,,500,500,fixation,,<div class = centerbox><div class = fixation>+</div></div>,none,500,test,,,,,,,,,,,937,66,poldrack-categorize,106,215568,0.0-106.0,ad1d6052-53af-4573-a104-df76f683842d,,1500,250,stim,,"<div class = centerbox><div class = stroop-stim style = ""color:blue"">GREEN</div></div>","66,71,82",1500,test,TRUE,66,500,incongruent,blue,green,,,,,-1,-1,poldrack-single-stim,107,216328,0.0-107.0,ad1d6052-53af-4573-a104-df76f683842d,,500,500,fixation,,<div class = centerbox><div class = fixation>+</div></div>,none,500,test,,,,,,,,,,,798,66,poldrack-categorize,108,218841,0.0-108.0,ad1d6052-53af-4573-a104-df76f683842d,,1500,250,stim,,"<div class = centerbox><div class = stroop-stim style = ""color:blue"">RED</div></div>","66,71,82",1500,test,TRUE,66,500,incongruent,blue,red,,,,,-1,-1,poldrack-single-stim,109,219602,0.0-109.0,ad1d6052-53af-4573-a104-df76f683842d,,500,500,fixation,,<div class = centerbox><div class = fixation>+</div></div>,none,500,test,,,,,,,,,,,669,66,poldrack-categorize,110,222115,0.0-110.0,ad1d6052-53af-4573-a104-df76f683842d,,1500,250,stim,,"<div class = centerbox><div class = stroop-stim style = ""color:blue"">GREEN</div></div>","66,71,82",1500,test,TRUE,66,500,incongruent,blue,green,,,,,-1,-1,poldrack-single-stim,111,222876,0.0-111.0,ad1d6052-53af-4573-a104-df76f683842d,,500,500,fixation,,<div class = centerbox><div class = fixation>+</div></div>,none,500,test,,,,,,,,,,,555,82,poldrack-categorize,112,225389,0.0-112.0,ad1d6052-53af-4573-a104-df76f683842d,,1500,250,stim,,"<div class = centerbox><div class = stroop-stim style = ""color:red"">RED</div></div>","66,71,82",1500,test,TRUE,82,500,congruent,red,red,,,,,-1,-1,poldrack-single-stim,113,226150,0.0-113.0,ad1d6052-53af-4573-a104-df76f683842d,,500,500,fixation,,<div class = centerbox><div class = fixation>+</div></div>,none,500,test,,,,,,,,,,,713,71,poldrack-categorize,114,228663,0.0-114.0,ad1d6052-53af-4573-a104-df76f683842d,,1500,250,stim,,"<div class = centerbox><div class = stroop-stim style = ""color:green"">GREEN</div></div>","66,71,82",1500,test,TRUE,71,500,congruent,green,green,,,,,-1,-1,poldrack-single-stim,115,229423,0.0-115.0,ad1d6052-53af-4573-a104-df76f683842d,,500,500,fixation,,<div class = centerbox><div class = fixation>+</div></div>,none,500,test,,,,,,,,,,,638,82,poldrack-categorize,116,231936,0.0-116.0,ad1d6052-53af-4573-a104-df76f683842d,,1500,250,stim,,"<div class = centerbox><div class = stroop-stim style = ""color:red"">RED</div></div>","66,71,82",1500,test,TRUE,82,500,congruent,red,red,,,,,-1,-1,poldrack-single-stim,117,232697,0.0-117.0,ad1d6052-53af-4573-a104-df76f683842d,,500,500,fixation,,<div class = centerbox><div class = fixation>+</div></div>,none,500,test,,,,,,,,,,,517,71,poldrack-categorize,118,235210,0.0-118.0,ad1d6052-53af-4573-a104-df76f683842d,,1500,250,stim,,"<div class = centerbox><div class = stroop-stim style = ""color:green"">GREEN</div></div>","66,71,82",1500,test,TRUE,71,500,congruent,green,green,,,,,-1,-1,poldrack-single-stim,119,235971,0.0-119.0,ad1d6052-53af-4573-a104-df76f683842d,,500,500,fixation,,<div class = centerbox><div class = fixation>+</div></div>,none,500,test,,,,,,,,,,,1211,71,poldrack-categorize,120,238484,0.0-120.0,ad1d6052-53af-4573-a104-df76f683842d,,1500,250,stim,,"<div class = centerbox><div class = stroop-stim style = ""color:green"">RED</div></div>","66,71,82",1500,test,TRUE,71,500,incongruent,green,red,,,,,-1,-1,poldrack-single-stim,121,239244,0.0-121.0,ad1d6052-53af-4573-a104-df76f683842d,,500,500,fixation,,<div class = centerbox><div class = fixation>+</div></div>,none,500,test,,,,,,,,,,,665,82,poldrack-categorize,122,241758,0.0-122.0,ad1d6052-53af-4573-a104-df76f683842d,,1500,250,stim,,"<div class = centerbox><div class = stroop-stim style = ""color:red"">RED</div></div>","66,71,82",1500,test,TRUE,82,500,congruent,red,red,,,,,-1,-1,poldrack-single-stim,123,242518,0.0-123.0,ad1d6052-53af-4573-a104-df76f683842d,,500,500,fixation,,<div class = centerbox><div class = fixation>+</div></div>,none,500,test,,,,,,,,,,,871,82,poldrack-categorize,124,245032,0.0-124.0,ad1d6052-53af-4573-a104-df76f683842d,,1500,250,stim,,"<div class = centerbox><div class = stroop-stim style = ""color:red"">BLUE</div></div>","66,71,82",1500,test,TRUE,82,500,incongruent,red,blue,,,,,-1,-1,poldrack-single-stim,125,245792,0.0-125.0,ad1d6052-53af-4573-a104-df76f683842d,,500,500,fixation,,<div class = centerbox><div class = fixation>+</div></div>,none,500,test,,,,,,,,,,,908,66,poldrack-categorize,126,248305,0.0-126.0,ad1d6052-53af-4573-a104-df76f683842d,,1500,250,stim,,"<div class = centerbox><div class = stroop-stim style = ""color:blue"">BLUE</div></div>","66,71,82",1500,test,TRUE,66,500,congruent,blue,blue,,,,,-1,-1,poldrack-single-stim,127,249066,0.0-127.0,ad1d6052-53af-4573-a104-df76f683842d,,500,500,fixation,,<div class = centerbox><div class = fixation>+</div></div>,none,500,test,,,,,,,,,,,627,66,poldrack-categorize,128,251579,0.0-128.0,ad1d6052-53af-4573-a104-df76f683842d,,1500,250,stim,,"<div class = centerbox><div class = stroop-stim style = ""color:blue"">BLUE</div></div>","66,71,82",1500,test,TRUE,66,500,congruent,blue,blue,,,,,-1,-1,poldrack-single-stim,129,252339,0.0-129.0,ad1d6052-53af-4573-a104-df76f683842d,,500,500,fixation,,<div class = centerbox><div class = fixation>+</div></div>,none,500,test,,,,,,,,,,,560,82,poldrack-categorize,130,254852,0.0-130.0,ad1d6052-53af-4573-a104-df76f683842d,,1500,250,stim,,"<div class = centerbox><div class = stroop-stim style = ""color:red"">RED</div></div>","66,71,82",1500,test,TRUE,82,500,congruent,red,red,,,,,-1,-1,poldrack-single-stim,131,255611,0.0-131.0,ad1d6052-53af-4573-a104-df76f683842d,,500,500,fixation,,<div class = centerbox><div class = fixation>+</div></div>,none,500,test,,,,,,,,,,,664,82,poldrack-categorize,132,258126,0.0-132.0,ad1d6052-53af-4573-a104-df76f683842d,,1500,250,stim,,"<div class = centerbox><div class = stroop-stim style = ""color:red"">GREEN</div></div>","66,71,82",1500,test,TRUE,82,500,incongruent,red,green,,,,,-1,-1,poldrack-single-stim,133,258886,0.0-133.0,ad1d6052-53af-4573-a104-df76f683842d,,500,500,fixation,,<div class = centerbox><div class = fixation>+</div></div>,none,500,test,,,,,,,,,,,982,71,poldrack-categorize,134,261400,0.0-134.0,ad1d6052-53af-4573-a104-df76f683842d,,1500,250,stim,,"<div class = centerbox><div class = stroop-stim style = ""color:green"">RED</div></div>","66,71,82",1500,test,TRUE,71,500,incongruent,green,red,,,,,-1,-1,poldrack-single-stim,135,262157,0.0-135.0,ad1d6052-53af-4573-a104-df76f683842d,,500,500,fixation,,<div class = centerbox><div class = fixation>+</div></div>,none,500,test,,,,,,,,,,,504,71,poldrack-categorize,136,264668,0.0-136.0,ad1d6052-53af-4573-a104-df76f683842d,,1500,250,stim,,"<div class = centerbox><div class = stroop-stim style = ""color:green"">GREEN</div></div>","66,71,82",1500,test,TRUE,71,500,congruent,green,green,,,,,-1,-1,poldrack-single-stim,137,265429,0.0-137.0,ad1d6052-53af-4573-a104-df76f683842d,,500,500,fixation,,<div class = centerbox><div class = fixation>+</div></div>,none,500,test,,,,,,,,,,,590,66,poldrack-categorize,138,267942,0.0-138.0,ad1d6052-53af-4573-a104-df76f683842d,,1500,250,stim,,"<div class = centerbox><div class = stroop-stim style = ""color:blue"">BLUE</div></div>","66,71,82",1500,test,TRUE,66,500,congruent,blue,blue,,,,,-1,-1,poldrack-single-stim,139,268702,0.0-139.0,ad1d6052-53af-4573-a104-df76f683842d,,500,500,fixation,,<div class = centerbox><div class = fixation>+</div></div>,none,500,test,,,,,,,,,,,620,71,poldrack-categorize,140,271216,0.0-140.0,ad1d6052-53af-4573-a104-df76f683842d,,1500,250,stim,,"<div class = centerbox><div class = stroop-stim style = ""color:green"">GREEN</div></div>","66,71,82",1500,test,TRUE,71,500,congruent,green,green,,,,,-1,-1,poldrack-single-stim,141,271973,0.0-141.0,ad1d6052-53af-4573-a104-df76f683842d,,500,500,fixation,,<div class = centerbox><div class = fixation>+</div></div>,none,500,test,,,,,,,,,,,896,66,poldrack-categorize,142,274484,0.0-142.0,ad1d6052-53af-4573-a104-df76f683842d,,1500,250,stim,,"<div class = centerbox><div class = stroop-stim style = ""color:red"">BLUE</div></div>","66,71,82",1500,test,FALSE,82,500,incongruent,red,blue,,,,,-1,-1,poldrack-single-stim,143,275244,0.0-143.0,ad1d6052-53af-4573-a104-df76f683842d,,500,500,fixation,,<div class = centerbox><div class = fixation>+</div></div>,none,500,test,,,,,,,,,,,702,66,poldrack-categorize,144,277757,0.0-144.0,ad1d6052-53af-4573-a104-df76f683842d,,1500,250,stim,,"<div class = centerbox><div class = stroop-stim style = ""color:blue"">GREEN</div></div>","66,71,82",1500,test,TRUE,66,500,incongruent,blue,green,,,,,-1,-1,poldrack-single-stim,145,278518,0.0-145.0,ad1d6052-53af-4573-a104-df76f683842d,,500,500,fixation,,<div class = centerbox><div class = fixation>+</div></div>,none,500,test,,,,,,,,,,,861,66,poldrack-categorize,146,281031,0.0-146.0,ad1d6052-53af-4573-a104-df76f683842d,,1500,250,stim,,"<div class = centerbox><div class = stroop-stim style = ""color:blue"">RED</div></div>","66,71,82",1500,test,TRUE,66,500,incongruent,blue,red,,,,,-1,-1,poldrack-single-stim,147,281792,0.0-147.0,ad1d6052-53af-4573-a104-df76f683842d,,500,500,fixation,,<div class = centerbox><div class = fixation>+</div></div>,none,500,test,,,,,,,,,,,786,71,poldrack-categorize,148,284303,0.0-148.0,ad1d6052-53af-4573-a104-df76f683842d,,1500,250,stim,,"<div class = centerbox><div class = stroop-stim style = ""color:green"">BLUE</div></div>","66,71,82",1500,test,TRUE,71,500,incongruent,green,blue,,,,,-1,-1,poldrack-single-stim,149,285060,0.0-149.0,ad1d6052-53af-4573-a104-df76f683842d,,500,500,fixation,,<div class = centerbox><div class = fixation>+</div></div>,none,500,test,,,,,,,,,,,630,71,poldrack-categorize,150,287567,0.0-150.0,ad1d6052-53af-4573-a104-df76f683842d,,1500,250,stim,,"<div class = centerbox><div class = stroop-stim style = ""color:green"">GREEN</div></div>","66,71,82",1500,test,TRUE,71,500,congruent,green,green,,,,,-1,-1,poldrack-single-stim,151,288328,0.0-151.0,ad1d6052-53af-4573-a104-df76f683842d,,500,500,fixation,,<div class = centerbox><div class = fixation>+</div></div>,none,500,test,,,,,,,,,,,650,82,poldrack-categorize,152,290841,0.0-152.0,ad1d6052-53af-4573-a104-df76f683842d,,1500,250,stim,,"<div class = centerbox><div class = stroop-stim style = ""color:red"">RED</div></div>","66,71,82",1500,test,TRUE,82,500,congruent,red,red,,,,,-1,-1,poldrack-single-stim,153,291602,0.0-153.0,ad1d6052-53af-4573-a104-df76f683842d,,500,500,fixation,,<div class = centerbox><div class = fixation>+</div></div>,none,500,test,,,,,,,,,,,751,82,poldrack-categorize,154,294115,0.0-154.0,ad1d6052-53af-4573-a104-df76f683842d,,1500,250,stim,,"<div class = centerbox><div class = stroop-stim style = ""color:red"">BLUE</div></div>","66,71,82",1500,test,TRUE,82,500,incongruent,red,blue,,,,,-1,-1,poldrack-single-stim,155,294875,0.0-155.0,ad1d6052-53af-4573-a104-df76f683842d,,500,500,fixation,,<div class = centerbox><div class = fixation>+</div></div>,none,500,test,,,,,,,,,,,605,71,poldrack-categorize,156,297388,0.0-156.0,ad1d6052-53af-4573-a104-df76f683842d,,1500,250,stim,,"<div class = centerbox><div class = stroop-stim style = ""color:green"">GREEN</div></div>","66,71,82",1500,test,TRUE,71,500,congruent,green,green,,,,,-1,-1,poldrack-single-stim,157,298149,0.0-157.0,ad1d6052-53af-4573-a104-df76f683842d,,500,500,fixation,,<div class = centerbox><div class = fixation>+</div></div>,none,500,test,,,,,,,,,,,732,82,poldrack-categorize,158,300659,0.0-158.0,ad1d6052-53af-4573-a104-df76f683842d,,1500,250,stim,,"<div class = centerbox><div class = stroop-stim style = ""color:red"">RED</div></div>","66,71,82",1500,test,TRUE,82,500,congruent,red,red,,,,,-1,-1,poldrack-single-stim,159,301417,0.0-159.0,ad1d6052-53af-4573-a104-df76f683842d,,500,500,fixation,,<div class = centerbox><div class = fixation>+</div></div>,none,500,test,,,,,,,,,,,856,66,poldrack-categorize,160,303930,0.0-160.0,ad1d6052-53af-4573-a104-df76f683842d,,1500,250,stim,,"<div class = centerbox><div class = stroop-stim style = ""color:blue"">GREEN</div></div>","66,71,82",1500,test,TRUE,66,500,incongruent,blue,green,,,,,-1,-1,poldrack-single-stim,161,304691,0.0-161.0,ad1d6052-53af-4573-a104-df76f683842d,,500,500,fixation,,<div class = centerbox><div class = fixation>+</div></div>,none,500,test,,,,,,,,,,,662,82,poldrack-categorize,162,307204,0.0-162.0,ad1d6052-53af-4573-a104-df76f683842d,,1500,250,stim,,"<div class = centerbox><div class = stroop-stim style = ""color:red"">RED</div></div>","66,71,82",1500,test,TRUE,82,500,congruent,red,red,,,,,-1,-1,poldrack-single-stim,163,307964,0.0-163.0,ad1d6052-53af-4573-a104-df76f683842d,,500,500,fixation,,<div class = centerbox><div class = fixation>+</div></div>,none,500,test,,,,,,,,,,,475,71,poldrack-categorize,164,310475,0.0-164.0,ad1d6052-53af-4573-a104-df76f683842d,,1500,250,stim,,"<div class = centerbox><div class = stroop-stim style = ""color:green"">BLUE</div></div>","66,71,82",1500,test,TRUE,71,500,incongruent,green,blue,,,,,-1,-1,poldrack-single-stim,165,311232,0.0-165.0,ad1d6052-53af-4573-a104-df76f683842d,,500,500,fixation,,<div class = centerbox><div class = fixation>+</div></div>,none,500,test,,,,,,,,,,,535,71,poldrack-categorize,166,313740,0.0-166.0,ad1d6052-53af-4573-a104-df76f683842d,,1500,250,stim,,"<div class = centerbox><div class = stroop-stim style = ""color:green"">GREEN</div></div>","66,71,82",1500,test,TRUE,71,500,congruent,green,green,,,,,-1,-1,poldrack-single-stim,167,314495,0.0-167.0,ad1d6052-53af-4573-a104-df76f683842d,,500,500,fixation,,<div class = centerbox><div class = fixation>+</div></div>,none,500,test,,,,,,,,,,,881,82,poldrack-categorize,168,317008,0.0-168.0,ad1d6052-53af-4573-a104-df76f683842d,,1500,250,stim,,"<div class = centerbox><div class = stroop-stim style = ""color:red"">BLUE</div></div>","66,71,82",1500,test,TRUE,82,500,incongruent,red,blue,,,,,-1,-1,poldrack-single-stim,169,317768,0.0-169.0,ad1d6052-53af-4573-a104-df76f683842d,,500,500,fixation,,<div class = centerbox><div class = fixation>+</div></div>,none,500,test,,,,,,,,,,,710,71,poldrack-categorize,170,320281,0.0-170.0,ad1d6052-53af-4573-a104-df76f683842d,,1500,250,stim,,"<div class = centerbox><div class = stroop-stim style = ""color:green"">GREEN</div></div>","66,71,82",1500,test,TRUE,71,500,congruent,green,green,,,,,-1,-1,poldrack-single-stim,171,321042,0.0-171.0,ad1d6052-53af-4573-a104-df76f683842d,,500,500,fixation,,<div class = centerbox><div class = fixation>+</div></div>,none,500,test,,,,,,,,,,,669,82,poldrack-categorize,172,323555,0.0-172.0,ad1d6052-53af-4573-a104-df76f683842d,,1500,250,stim,,"<div class = centerbox><div class = stroop-stim style = ""color:red"">RED</div></div>","66,71,82",1500,test,TRUE,82,500,congruent,red,red,,,,,-1,-1,poldrack-single-stim,173,324316,0.0-173.0,ad1d6052-53af-4573-a104-df76f683842d,,500,500,fixation,,<div class = centerbox><div class = fixation>+</div></div>,none,500,test,,,,,,,,,,,890,66,poldrack-categorize,174,326823,0.0-174.0,ad1d6052-53af-4573-a104-df76f683842d,,1500,250,stim,,"<div class = centerbox><div class = stroop-stim style = ""color:blue"">BLUE</div></div>","66,71,82",1500,test,TRUE,66,500,congruent,blue,blue,,,,,-1,-1,poldrack-single-stim,175,327584,0.0-175.0,ad1d6052-53af-4573-a104-df76f683842d,,500,500,fixation,,<div class = centerbox><div class = fixation>+</div></div>,none,500,test,,,,,,,,,,,607,82,poldrack-categorize,176,330097,0.0-176.0,ad1d6052-53af-4573-a104-df76f683842d,,1500,250,stim,,"<div class = centerbox><div class = stroop-stim style = ""color:red"">RED</div></div>","66,71,82",1500,test,TRUE,82,500,congruent,red,red,,,,,-1,-1,poldrack-single-stim,177,330857,0.0-177.0,ad1d6052-53af-4573-a104-df76f683842d,,500,500,fixation,,<div class = centerbox><div class = fixation>+</div></div>,none,500,test,,,,,,,,,,,836,66,poldrack-categorize,178,333371,0.0-178.0,ad1d6052-53af-4573-a104-df76f683842d,,1500,250,stim,,"<div class = centerbox><div class = stroop-stim style = ""color:blue"">GREEN</div></div>","66,71,82",1500,test,TRUE,66,500,incongruent,blue,green,,,,,-1,-1,poldrack-single-stim,179,334131,0.0-179.0,ad1d6052-53af-4573-a104-df76f683842d,,500,500,fixation,,<div class = centerbox><div class = fixation>+</div></div>,none,500,test,,,,,,,,,,,802,66,poldrack-categorize,180,336645,0.0-180.0,ad1d6052-53af-4573-a104-df76f683842d,,1500,250,stim,,"<div class = centerbox><div class = stroop-stim style = ""color:blue"">BLUE</div></div>","66,71,82",1500,test,TRUE,66,500,congruent,blue,blue,,,,,-1,-1,poldrack-single-stim,181,337403,0.0-181.0,ad1d6052-53af-4573-a104-df76f683842d,,500,500,fixation,,<div class = centerbox><div class = fixation>+</div></div>,none,500,test,,,,,,,,,,,710,82,poldrack-categorize,182,339912,0.0-182.0,ad1d6052-53af-4573-a104-df76f683842d,,1500,250,stim,,"<div class = centerbox><div class = stroop-stim style = ""color:red"">GREEN</div></div>","66,71,82",1500,test,TRUE,82,500,incongruent,red,green,,,,,-1,-1,poldrack-single-stim,183,340673,0.0-183.0,ad1d6052-53af-4573-a104-df76f683842d,,500,500,fixation,,<div class = centerbox><div class = fixation>+</div></div>,none,500,test,,,,,,,,,,,460,82,poldrack-categorize,184,343180,0.0-184.0,ad1d6052-53af-4573-a104-df76f683842d,,1500,250,stim,,"<div class = centerbox><div class = stroop-stim style = ""color:red"">RED</div></div>","66,71,82",1500,test,TRUE,82,500,congruent,red,red,,,,,-1,-1,poldrack-single-stim,185,343939,0.0-185.0,ad1d6052-53af-4573-a104-df76f683842d,,500,500,fixation,,<div class = centerbox><div class = fixation>+</div></div>,none,500,test,,,,,,,,,,,477,82,poldrack-categorize,186,346448,0.0-186.0,ad1d6052-53af-4573-a104-df76f683842d,,1500,250,stim,,"<div class = centerbox><div class = stroop-stim style = ""color:red"">RED</div></div>","66,71,82",1500,test,TRUE,82,500,congruent,red,red,,,,,-1,-1,poldrack-single-stim,187,347209,0.0-187.0,ad1d6052-53af-4573-a104-df76f683842d,,500,500,fixation,,<div class = centerbox><div class = fixation>+</div></div>,none,500,test,,,,,,,,,,,932,71,poldrack-categorize,188,349718,0.0-188.0,ad1d6052-53af-4573-a104-df76f683842d,,1500,250,stim,,"<div class = centerbox><div class = stroop-stim style = ""color:green"">RED</div></div>","66,71,82",1500,test,TRUE,71,500,incongruent,green,red,,,,,-1,-1,poldrack-single-stim,189,350477,0.0-189.0,ad1d6052-53af-4573-a104-df76f683842d,,500,500,fixation,,<div class = centerbox><div class = fixation>+</div></div>,none,500,test,,,,,,,,,,,800,66,poldrack-categorize,190,352990,0.0-190.0,ad1d6052-53af-4573-a104-df76f683842d,,1500,250,stim,,"<div class = centerbox><div class = stroop-stim style = ""color:blue"">RED</div></div>","66,71,82",1500,test,TRUE,66,500,incongruent,blue,red,,,,,-1,-1,poldrack-single-stim,191,353751,0.0-191.0,ad1d6052-53af-4573-a104-df76f683842d,,500,500,fixation,,<div class = centerbox><div class = fixation>+</div></div>,none,500,test,,,,,,,,,,,669,71,poldrack-categorize,192,356264,0.0-192.0,ad1d6052-53af-4573-a104-df76f683842d,,1500,250,stim,,"<div class = centerbox><div class = stroop-stim style = ""color:green"">GREEN</div></div>","66,71,82",1500,test,TRUE,71,500,congruent,green,green,,,,,-1,-1,poldrack-single-stim,193,357024,0.0-193.0,ad1d6052-53af-4573-a104-df76f683842d,,500,500,fixation,,<div class = centerbox><div class = fixation>+</div></div>,none,500,test,,,,,,,,,,,923,82,poldrack-categorize,194,359537,0.0-194.0,ad1d6052-53af-4573-a104-df76f683842d,,1500,250,stim,,"<div class = centerbox><div class = stroop-stim style = ""color:red"">RED</div></div>","66,71,82",1500,test,TRUE,82,500,congruent,red,red,,,,,-1,-1,poldrack-single-stim,195,360298,0.0-195.0,ad1d6052-53af-4573-a104-df76f683842d,,500,500,fixation,,<div class = centerbox><div class = fixation>+</div></div>,none,500,test,,,,,,,,,,,745,82,poldrack-categorize,196,362811,0.0-196.0,ad1d6052-53af-4573-a104-df76f683842d,,1500,250,stim,,"<div class = centerbox><div class = stroop-stim style = ""color:red"">GREEN</div></div>","66,71,82",1500,test,TRUE,82,500,incongruent,red,green,,,,,-1,-1,poldrack-single-stim,197,363572,0.0-197.0,ad1d6052-53af-4573-a104-df76f683842d,,500,500,fixation,,<div class = centerbox><div class = fixation>+</div></div>,none,500,test,,,,,,,,,,,880,66,poldrack-categorize,198,366085,0.0-198.0,ad1d6052-53af-4573-a104-df76f683842d,,1500,250,stim,,"<div class = centerbox><div class = stroop-stim style = ""color:blue"">BLUE</div></div>","66,71,82",1500,test,TRUE,66,500,congruent,blue,blue,,,,,-1,-1,poldrack-single-stim,199,366846,0.0-199.0,ad1d6052-53af-4573-a104-df76f683842d,,500,500,fixation,,<div class = centerbox><div class = fixation>+</div></div>,none,500,test,,,,,,,,,,,830,71,poldrack-categorize,200,369358,0.0-200.0,ad1d6052-53af-4573-a104-df76f683842d,,1500,250,stim,,"<div class = centerbox><div class = stroop-stim style = ""color:green"">RED</div></div>","66,71,82",1500,test,TRUE,71,500,incongruent,green,red,,,,,-1,-1,poldrack-single-stim,201,370112,0.0-201.0,ad1d6052-53af-4573-a104-df76f683842d,,500,500,fixation,,<div class = centerbox><div class = fixation>+</div></div>,none,500,test,,,,,,,,,,,976,82,poldrack-categorize,202,372621,0.0-202.0,ad1d6052-53af-4573-a104-df76f683842d,,1500,250,stim,,"<div class = centerbox><div class = stroop-stim style = ""color:red"">BLUE</div></div>","66,71,82",1500,test,TRUE,82,500,incongruent,red,blue,,,,,-1,-1,poldrack-single-stim,203,373381,0.0-203.0,ad1d6052-53af-4573-a104-df76f683842d,,500,500,fixation,,<div class = centerbox><div class = fixation>+</div></div>,none,500,test,,,,,,,,,,,1101,82,poldrack-categorize,204,375890,0.0-204.0,ad1d6052-53af-4573-a104-df76f683842d,,1500,250,stim,,"<div class = centerbox><div class = stroop-stim style = ""color:red"">GREEN</div></div>","66,71,82",1500,test,TRUE,82,500,incongruent,red,green,,,,,-1,-1,poldrack-single-stim,205,376649,0.0-205.0,ad1d6052-53af-4573-a104-df76f683842d,,500,500,fixation,,<div class = centerbox><div class = fixation>+</div></div>,none,500,test,,,,,,,,,,,921,66,poldrack-categorize,206,379162,0.0-206.0,ad1d6052-53af-4573-a104-df76f683842d,,1500,250,stim,,"<div class = centerbox><div class = stroop-stim style = ""color:blue"">RED</div></div>","66,71,82",1500,test,TRUE,66,500,incongruent,blue,red,,,,,-1,-1,poldrack-single-stim,207,379923,0.0-207.0,ad1d6052-53af-4573-a104-df76f683842d,,500,500,fixation,,<div class = centerbox><div class = fixation>+</div></div>,none,500,test,,,,,,,,,,,862,71,poldrack-categorize,208,382436,0.0-208.0,ad1d6052-53af-4573-a104-df76f683842d,,1500,250,stim,,"<div class = centerbox><div class = stroop-stim style = ""color:green"">GREEN</div></div>","66,71,82",1500,test,TRUE,71,500,congruent,green,green,,,,,-1,-1,poldrack-single-stim,209,383197,0.0-209.0,ad1d6052-53af-4573-a104-df76f683842d,,500,500,fixation,,<div class = centerbox><div class = fixation>+</div></div>,none,500,test,,,,,,,,,,,773,82,poldrack-categorize,210,385710,0.0-210.0,ad1d6052-53af-4573-a104-df76f683842d,,1500,250,stim,,"<div class = centerbox><div class = stroop-stim style = ""color:red"">GREEN</div></div>","66,71,82",1500,test,TRUE,82,500,incongruent,red,green,,,,,-1,-1,poldrack-single-stim,211,386471,0.0-211.0,ad1d6052-53af-4573-a104-df76f683842d,,500,500,fixation,,<div class = centerbox><div class = fixation>+</div></div>,none,500,test,,,,,,,,,,,1099,71,poldrack-categorize,212,388984,0.0-212.0,ad1d6052-53af-4573-a104-df76f683842d,,1500,250,stim,,"<div class = centerbox><div class = stroop-stim style = ""color:green"">RED</div></div>","66,71,82",1500,test,TRUE,71,500,incongruent,green,red,,,,,-1,-1,poldrack-single-stim,213,389744,0.0-213.0,ad1d6052-53af-4573-a104-df76f683842d,,500,500,fixation,,<div class = centerbox><div class = fixation>+</div></div>,none,500,test,,,,,,,,,,,842,82,poldrack-categorize,214,392258,0.0-214.0,ad1d6052-53af-4573-a104-df76f683842d,,1500,250,stim,,"<div class = centerbox><div class = stroop-stim style = ""color:red"">RED</div></div>","66,71,82",1500,test,TRUE,82,500,congruent,red,red,,,,,-1,-1,poldrack-single-stim,215,393015,0.0-215.0,ad1d6052-53af-4573-a104-df76f683842d,,500,500,fixation,,<div class = centerbox><div class = fixation>+</div></div>,none,500,test,,,,,,,,,,,989,66,poldrack-categorize,216,395525,0.0-216.0,ad1d6052-53af-4573-a104-df76f683842d,,1500,250,stim,,"<div class = centerbox><div class = stroop-stim style = ""color:blue"">RED</div></div>","66,71,82",1500,test,TRUE,66,500,incongruent,blue,red,,,,,-1,-1,poldrack-single-stim,217,396286,0.0-217.0,ad1d6052-53af-4573-a104-df76f683842d,,500,500,fixation,,<div class = centerbox><div class = fixation>+</div></div>,none,500,test,,,,,,,,,,,1394,82,poldrack-categorize,218,398793,0.0-218.0,ad1d6052-53af-4573-a104-df76f683842d,,1500,250,stim,,"<div class = centerbox><div class = stroop-stim style = ""color:red"">BLUE</div></div>","66,71,82",1500,test,TRUE,82,500,incongruent,red,blue,,,,,-1,-1,poldrack-single-stim,219,399554,0.0-219.0,ad1d6052-53af-4573-a104-df76f683842d,,500,500,fixation,,<div class = centerbox><div class = fixation>+</div></div>,none,500,test,,,,,,,,,,,814,66,poldrack-categorize,220,402067,0.0-220.0,ad1d6052-53af-4573-a104-df76f683842d,,1500,250,stim,,"<div class = centerbox><div class = stroop-stim style = ""color:blue"">BLUE</div></div>","66,71,82",1500,test,TRUE,66,500,congruent,blue,blue,,,,,-1,-1,poldrack-single-stim,221,402827,0.0-221.0,ad1d6052-53af-4573-a104-df76f683842d,,500,500,fixation,,<div class = centerbox><div class = fixation>+</div></div>,none,500,test,,,,,,,,,,,868,82,poldrack-categorize,222,405341,0.0-222.0,ad1d6052-53af-4573-a104-df76f683842d,,1500,250,stim,,"<div class = centerbox><div class = stroop-stim style = ""color:red"">GREEN</div></div>","66,71,82",1500,test,TRUE,82,500,incongruent,red,green,,,,,-1,-1,poldrack-single-stim,223,406102,0.0-223.0,ad1d6052-53af-4573-a104-df76f683842d,,500,500,fixation,,<div class = centerbox><div class = fixation>+</div></div>,none,500,test,,,,,,,,,,,403,82,poldrack-categorize,224,408615,0.0-224.0,ad1d6052-53af-4573-a104-df76f683842d,,1500,250,stim,,"<div class = centerbox><div class = stroop-stim style = ""color:red"">GREEN</div></div>","66,71,82",1500,test,TRUE,82,500,incongruent,red,green,,,,,-1,-1,poldrack-single-stim,225,409375,0.0-225.0,ad1d6052-53af-4573-a104-df76f683842d,,500,500,fixation,,<div class = centerbox><div class = fixation>+</div></div>,none,500,test,,,,,,,,,,,816,71,poldrack-categorize,226,411888,0.0-226.0,ad1d6052-53af-4573-a104-df76f683842d,,1500,250,stim,,"<div class = centerbox><div class = stroop-stim style = ""color:green"">BLUE</div></div>","66,71,82",1500,test,TRUE,71,500,incongruent,green,blue,,,,,-1,-1,poldrack-single-stim,227,412649,0.0-227.0,ad1d6052-53af-4573-a104-df76f683842d,,500,500,fixation,,<div class = centerbox><div class = fixation>+</div></div>,none,500,test,,,,,,,,,,,558,71,poldrack-categorize,228,415162,0.0-228.0,ad1d6052-53af-4573-a104-df76f683842d,,1500,250,stim,,"<div class = centerbox><div class = stroop-stim style = ""color:green"">RED</div></div>","66,71,82",1500,test,TRUE,71,500,incongruent,green,red,,,,,-1,-1,poldrack-single-stim,229,415923,0.0-229.0,ad1d6052-53af-4573-a104-df76f683842d,,500,500,fixation,,<div class = centerbox><div class = fixation>+</div></div>,none,500,test,,,,,,,,,,,550,71,poldrack-categorize,230,418436,0.0-230.0,ad1d6052-53af-4573-a104-df76f683842d,,1500,250,stim,,"<div class = centerbox><div class = stroop-stim style = ""color:green"">GREEN</div></div>","66,71,82",1500,test,TRUE,71,500,congruent,green,green,,,,,-1,-1,poldrack-single-stim,231,419197,0.0-231.0,ad1d6052-53af-4573-a104-df76f683842d,,500,500,fixation,,<div class = centerbox><div class = fixation>+</div></div>,none,500,test,,,,,,,,,,,771,66,poldrack-categorize,232,421706,0.0-232.0,ad1d6052-53af-4573-a104-df76f683842d,,1500,250,stim,,"<div class = centerbox><div class = stroop-stim style = ""color:blue"">BLUE</div></div>","66,71,82",1500,test,TRUE,66,500,congruent,blue,blue,,,,,-1,-1,poldrack-single-stim,233,422465,0.0-233.0,ad1d6052-53af-4573-a104-df76f683842d,,500,500,fixation,,<div class = centerbox><div class = fixation>+</div></div>,none,500,test,,,,,,,,,,,662,66,poldrack-categorize,234,424978,0.0-234.0,ad1d6052-53af-4573-a104-df76f683842d,,1500,250,stim,,"<div class = centerbox><div class = stroop-stim style = ""color:blue"">BLUE</div></div>","66,71,82",1500,test,TRUE,66,500,congruent,blue,blue,,,,,-1,-1,poldrack-single-stim,235,425738,0.0-235.0,ad1d6052-53af-4573-a104-df76f683842d,,500,500,fixation,,<div class = centerbox><div class = fixation>+</div></div>,none,500,test,,,,,,,,,,,460,66,poldrack-categorize,236,428251,0.0-236.0,ad1d6052-53af-4573-a104-df76f683842d,,1500,250,stim,,"<div class = centerbox><div class = stroop-stim style = ""color:blue"">BLUE</div></div>","66,71,82",1500,test,TRUE,66,500,congruent,blue,blue,,,,,-1,-1,poldrack-single-stim,237,429012,0.0-237.0,ad1d6052-53af-4573-a104-df76f683842d,,500,500,fixation,,<div class = centerbox><div class = fixation>+</div></div>,none,500,test,,,,,,,,,,,755,82,poldrack-categorize,238,431525,0.0-238.0,ad1d6052-53af-4573-a104-df76f683842d,,1500,250,stim,,"<div class = centerbox><div class = stroop-stim style = ""color:red"">BLUE</div></div>","66,71,82",1500,test,TRUE,82,500,incongruent,red,blue,,,,,-1,-1,poldrack-single-stim,239,432286,0.0-239.0,ad1d6052-53af-4573-a104-df76f683842d,,500,500,fixation,,<div class = centerbox><div class = fixation>+</div></div>,none,500,test,,,,,,,,,,,688,66,poldrack-categorize,240,434799,0.0-240.0,ad1d6052-53af-4573-a104-df76f683842d,,1500,250,stim,,"<div class = centerbox><div class = stroop-stim style = ""color:blue"">BLUE</div></div>","66,71,82",1500,test,TRUE,66,500,congruent,blue,blue,,,,,-1,-1,poldrack-single-stim,241,435560,0.0-241.0,ad1d6052-53af-4573-a104-df76f683842d,,500,500,fixation,,<div class = centerbox><div class = fixation>+</div></div>,none,500,test,,,,,,,,,,,998,66,poldrack-categorize,242,438073,0.0-242.0,ad1d6052-53af-4573-a104-df76f683842d,,1500,250,stim,,"<div class = centerbox><div class = stroop-stim style = ""color:blue"">GREEN</div></div>","66,71,82",1500,test,TRUE,66,500,incongruent,blue,green,,,,,-1,-1,poldrack-single-stim,243,438833,0.0-243.0,ad1d6052-53af-4573-a104-df76f683842d,,500,500,fixation,,<div class = centerbox><div class = fixation>+</div></div>,none,500,test,,,,,,,,,,,661,66,poldrack-categorize,244,441347,0.0-244.0,ad1d6052-53af-4573-a104-df76f683842d,,1500,250,stim,,"<div class = centerbox><div class = stroop-stim style = ""color:blue"">RED</div></div>","66,71,82",1500,test,TRUE,66,500,incongruent,blue,red,,,,,42987,,survey-text,245,484595,0.0-246.0,ad1d6052-53af-4573-a104-df76f683842d,,,,post task questions,,,,,,,,,,,,"{""Q0"":""Determine the color of the ink of a word and hit a corresponding key on the keyboard."",""Q1"":""no""}",,,,3222,13,poldrack-text,246,488819,0.0-247.0,ad1d6052-53af-4573-a104-df76f683842d,<div class = centerbox><p class = center-block-text>Thanks for completing this task!</p><p class = center-block-text>Press <strong>enter</strong> to continue.</p></div>,3222,0,end,,,,,,,,,,,,,stroop,TRUE,,4545,13,poldrack-text,247,493402,0.0-248.0-0.0,ad1d6052-53af-4573-a104-df76f683842d,<div class = centerbox><p class = center-block-text>Done with instructions. Press <strong>enter</strong> to continue.</p></div>,4545,0,instruction,,,,,,,,,,,,,,,,