rt,key_press,trial_type,trial_index,time_elapsed,internal_node_id,subject,text,block_duration,timing_post_trial,trial_id,view_history,stimulus,possible_responses,stim_duration,exp_stage,stim_place,stim_id,condition,correct,correct_response,responses,exp_id,feedback_duration,stim_color,stim_word,credit_var118771,13,text,0,118773,0.0-0.0,cf1111e0-cdb2-4166-a3c5-c52b2158a840,,,,,,,,,,,,,,,,,,,,2928,13,poldrack-text,389,749035,0.0-388.0-0.0,cf1111e0-cdb2-4166-a3c5-c52b2158a840,<div class = centerbox><p class = center-block-text>Done with instructions. Press <strong>enter</strong> to continue.</p></div>,2928,0,instruction,,,,,,,,,,,,,,,,17107,,poldrack-instructions,390,766142,0.0-388.0-1.0,cf1111e0-cdb2-4166-a3c5-c52b2158a840,,,,instruction,"[{""page_index"":0,""viewing_time"":17106}]",,,,,,,,,,,,,,,6611,13,poldrack-text,391,773761,0.0-389.0,cf1111e0-cdb2-4166-a3c5-c52b2158a840,"<div class = centerbox><p class = block-text>We will start with a few practice trials. Remember, press the key corresponding to the <strong>ink</strong> color of the word: ""r"" for words colored red, ""b"" for words colored blue, and ""g"" for words colored green.</p><p class = block-text>Press <strong>enter</strong> to begin practice.</p></div>",6611,1000,practice_intro,,,,,,,,,,,,,,,,-1,-1,poldrack-single-stim,392,775269,0.0-390.0,cf1111e0-cdb2-4166-a3c5-c52b2158a840,,500,500,fixation,,<div class = centerbox><div class = fixation>+</div></div>,none,500,practice,,,,,,,,,,,1471,71,poldrack-categorize,393,777773,0.0-391.0,cf1111e0-cdb2-4166-a3c5-c52b2158a840,,1500,250,stim,,"<div class = centerbox><div class = stroop-stim style = ""color:green"">RED</div></div>","66,71,82",1500,practice,,,incongruent,TRUE,71,,,500,green,red,-1,-1,poldrack-single-stim,394,778528,0.0-392.0,cf1111e0-cdb2-4166-a3c5-c52b2158a840,,500,500,fixation,,<div class = centerbox><div class = fixation>+</div></div>,none,500,practice,,,,,,,,,,,850,82,poldrack-categorize,395,781039,0.0-393.0,cf1111e0-cdb2-4166-a3c5-c52b2158a840,,1500,250,stim,,"<div class = centerbox><div class = stroop-stim style = ""color:red"">GREEN</div></div>","66,71,82",1500,practice,,,incongruent,TRUE,82,,,500,red,green,-1,-1,poldrack-single-stim,396,781795,0.0-394.0,cf1111e0-cdb2-4166-a3c5-c52b2158a840,,500,500,fixation,,<div class = centerbox><div class = fixation>+</div></div>,none,500,practice,,,,,,,,,,,1350,82,poldrack-categorize,397,784301,0.0-395.0,cf1111e0-cdb2-4166-a3c5-c52b2158a840,,1500,250,stim,,"<div class = centerbox><div class = stroop-stim style = ""color:red"">GREEN</div></div>","66,71,82",1500,practice,,,incongruent,TRUE,82,,,500,red,green,-1,-1,poldrack-single-stim,398,785055,0.0-396.0,cf1111e0-cdb2-4166-a3c5-c52b2158a840,,500,500,fixation,,<div class = centerbox><div class = fixation>+</div></div>,none,500,practice,,,,,,,,,,,1440,82,poldrack-categorize,399,787569,0.0-397.0,cf1111e0-cdb2-4166-a3c5-c52b2158a840,,1500,250,stim,,"<div class = centerbox><div class = stroop-stim style = ""color:red"">RED</div></div>","66,71,82",1500,practice,,,congruent,TRUE,82,,,500,red,red,-1,-1,poldrack-single-stim,400,788329,0.0-398.0,cf1111e0-cdb2-4166-a3c5-c52b2158a840,,500,500,fixation,,<div class = centerbox><div class = fixation>+</div></div>,none,500,practice,,,,,,,,,,,-1,-1,poldrack-categorize,401,790843,0.0-399.0,cf1111e0-cdb2-4166-a3c5-c52b2158a840,,1500,250,stim,,"<div class = centerbox><div class = stroop-stim style = ""color:green"">GREEN</div></div>","66,71,82",1500,practice,,,congruent,FALSE,71,,,500,green,green,-1,-1,poldrack-single-stim,402,791603,0.0-400.0,cf1111e0-cdb2-4166-a3c5-c52b2158a840,,500,500,fixation,,<div class = centerbox><div class = fixation>+</div></div>,none,500,practice,,,,,,,,,,,627,82,poldrack-categorize,403,794116,0.0-401.0,cf1111e0-cdb2-4166-a3c5-c52b2158a840,,1500,250,stim,,"<div class = centerbox><div class = stroop-stim style = ""color:red"">BLUE</div></div>","66,71,82",1500,practice,,,incongruent,TRUE,82,,,500,red,blue,-1,-1,poldrack-single-stim,404,794871,0.0-402.0,cf1111e0-cdb2-4166-a3c5-c52b2158a840,,500,500,fixation,,<div class = centerbox><div class = fixation>+</div></div>,none,500,practice,,,,,,,,,,,847,71,poldrack-categorize,405,797384,0.0-403.0,cf1111e0-cdb2-4166-a3c5-c52b2158a840,,1500,250,stim,,"<div class = centerbox><div class = stroop-stim style = ""color:green"">GREEN</div></div>","66,71,82",1500,practice,,,congruent,TRUE,71,,,500,green,green,-1,-1,poldrack-single-stim,406,798145,0.0-404.0,cf1111e0-cdb2-4166-a3c5-c52b2158a840,,500,500,fixation,,<div class = centerbox><div class = fixation>+</div></div>,none,500,practice,,,,,,,,,,,792,66,poldrack-categorize,407,800658,0.0-405.0,cf1111e0-cdb2-4166-a3c5-c52b2158a840,,1500,250,stim,,"<div class = centerbox><div class = stroop-stim style = ""color:blue"">GREEN</div></div>","66,71,82",1500,practice,,,incongruent,TRUE,66,,,500,blue,green,-1,-1,poldrack-single-stim,408,801419,0.0-406.0,cf1111e0-cdb2-4166-a3c5-c52b2158a840,,500,500,fixation,,<div class = centerbox><div class = fixation>+</div></div>,none,500,practice,,,,,,,,,,,748,71,poldrack-categorize,409,803926,0.0-407.0,cf1111e0-cdb2-4166-a3c5-c52b2158a840,,1500,250,stim,,"<div class = centerbox><div class = stroop-stim style = ""color:green"">BLUE</div></div>","66,71,82",1500,practice,,,incongruent,TRUE,71,,,500,green,blue,-1,-1,poldrack-single-stim,410,804687,0.0-408.0,cf1111e0-cdb2-4166-a3c5-c52b2158a840,,500,500,fixation,,<div class = centerbox><div class = fixation>+</div></div>,none,500,practice,,,,,,,,,,,448,82,poldrack-categorize,411,807200,0.0-409.0,cf1111e0-cdb2-4166-a3c5-c52b2158a840,,1500,250,stim,,"<div class = centerbox><div class = stroop-stim style = ""color:red"">RED</div></div>","66,71,82",1500,practice,,,congruent,TRUE,82,,,500,red,red,-1,-1,poldrack-single-stim,412,807960,0.0-410.0,cf1111e0-cdb2-4166-a3c5-c52b2158a840,,500,500,fixation,,<div class = centerbox><div class = fixation>+</div></div>,none,500,practice,,,,,,,,,,,1069,71,poldrack-categorize,413,810474,0.0-411.0,cf1111e0-cdb2-4166-a3c5-c52b2158a840,,1500,250,stim,,"<div class = centerbox><div class = stroop-stim style = ""color:green"">BLUE</div></div>","66,71,82",1500,practice,,,incongruent,TRUE,71,,,500,green,blue,-1,-1,poldrack-single-stim,414,811234,0.0-412.0,cf1111e0-cdb2-4166-a3c5-c52b2158a840,,500,500,fixation,,<div class = centerbox><div class = fixation>+</div></div>,none,500,practice,,,,,,,,,,,603,66,poldrack-categorize,415,813748,0.0-413.0,cf1111e0-cdb2-4166-a3c5-c52b2158a840,,1500,250,stim,,"<div class = centerbox><div class = stroop-stim style = ""color:blue"">BLUE</div></div>","66,71,82",1500,practice,,,congruent,TRUE,66,,,500,blue,blue,-1,-1,poldrack-single-stim,416,814508,0.0-414.0,cf1111e0-cdb2-4166-a3c5-c52b2158a840,,500,500,fixation,,<div class = centerbox><div class = fixation>+</div></div>,none,500,practice,,,,,,,,,,,509,82,poldrack-categorize,417,817012,0.0-415.0,cf1111e0-cdb2-4166-a3c5-c52b2158a840,,1500,250,stim,,"<div class = centerbox><div class = stroop-stim style = ""color:red"">RED</div></div>","66,71,82",1500,practice,,,congruent,TRUE,82,,,500,red,red,-1,-1,poldrack-single-stim,418,817770,0.0-416.0,cf1111e0-cdb2-4166-a3c5-c52b2158a840,,500,500,fixation,,<div class = centerbox><div class = fixation>+</div></div>,none,500,practice,,,,,,,,,,,723,66,poldrack-categorize,419,820283,0.0-417.0,cf1111e0-cdb2-4166-a3c5-c52b2158a840,,1500,250,stim,,"<div class = centerbox><div class = stroop-stim style = ""color:blue"">RED</div></div>","66,71,82",1500,practice,,,incongruent,TRUE,66,,,500,blue,red,-1,-1,poldrack-single-stim,420,821044,0.0-418.0,cf1111e0-cdb2-4166-a3c5-c52b2158a840,,500,500,fixation,,<div class = centerbox><div class = fixation>+</div></div>,none,500,practice,,,,,,,,,,,1120,71,poldrack-categorize,421,823557,0.0-419.0,cf1111e0-cdb2-4166-a3c5-c52b2158a840,,1500,250,stim,,"<div class = centerbox><div class = stroop-stim style = ""color:green"">GREEN</div></div>","66,71,82",1500,practice,,,congruent,TRUE,71,,,500,green,green,-1,-1,poldrack-single-stim,422,824318,0.0-420.0,cf1111e0-cdb2-4166-a3c5-c52b2158a840,,500,500,fixation,,<div class = centerbox><div class = fixation>+</div></div>,none,500,practice,,,,,,,,,,,711,66,poldrack-categorize,423,826831,0.0-421.0,cf1111e0-cdb2-4166-a3c5-c52b2158a840,,1500,250,stim,,"<div class = centerbox><div class = stroop-stim style = ""color:blue"">BLUE</div></div>","66,71,82",1500,practice,,,congruent,TRUE,66,,,500,blue,blue,-1,-1,poldrack-single-stim,424,827592,0.0-422.0,cf1111e0-cdb2-4166-a3c5-c52b2158a840,,500,500,fixation,,<div class = centerbox><div class = fixation>+</div></div>,none,500,practice,,,,,,,,,,,1213,71,poldrack-categorize,425,830105,0.0-423.0,cf1111e0-cdb2-4166-a3c5-c52b2158a840,,1500,250,stim,,"<div class = centerbox><div class = stroop-stim style = ""color:green"">RED</div></div>","66,71,82",1500,practice,,,incongruent,TRUE,71,,,500,green,red,-1,-1,poldrack-single-stim,426,830865,0.0-424.0,cf1111e0-cdb2-4166-a3c5-c52b2158a840,,500,500,fixation,,<div class = centerbox><div class = fixation>+</div></div>,none,500,practice,,,,,,,,,,,619,66,poldrack-categorize,427,833379,0.0-425.0,cf1111e0-cdb2-4166-a3c5-c52b2158a840,,1500,250,stim,,"<div class = centerbox><div class = stroop-stim style = ""color:blue"">BLUE</div></div>","66,71,82",1500,practice,,,congruent,TRUE,66,,,500,blue,blue,-1,-1,poldrack-single-stim,428,834134,0.0-426.0,cf1111e0-cdb2-4166-a3c5-c52b2158a840,,500,500,fixation,,<div class = centerbox><div class = fixation>+</div></div>,none,500,practice,,,,,,,,,,,767,66,poldrack-categorize,429,836647,0.0-427.0,cf1111e0-cdb2-4166-a3c5-c52b2158a840,,1500,250,stim,,"<div class = centerbox><div class = stroop-stim style = ""color:blue"">GREEN</div></div>","66,71,82",1500,practice,,,incongruent,TRUE,66,,,500,blue,green,-1,-1,poldrack-single-stim,430,837407,0.0-428.0,cf1111e0-cdb2-4166-a3c5-c52b2158a840,,500,500,fixation,,<div class = centerbox><div class = fixation>+</div></div>,none,500,practice,,,,,,,,,,,445,82,poldrack-categorize,431,839921,0.0-429.0,cf1111e0-cdb2-4166-a3c5-c52b2158a840,,1500,250,stim,,"<div class = centerbox><div class = stroop-stim style = ""color:red"">RED</div></div>","66,71,82",1500,practice,,,congruent,TRUE,82,,,500,red,red,-1,-1,poldrack-single-stim,432,840681,0.0-430.0,cf1111e0-cdb2-4166-a3c5-c52b2158a840,,500,500,fixation,,<div class = centerbox><div class = fixation>+</div></div>,none,500,practice,,,,,,,,,,,482,66,poldrack-categorize,433,843194,0.0-431.0,cf1111e0-cdb2-4166-a3c5-c52b2158a840,,1500,250,stim,,"<div class = centerbox><div class = stroop-stim style = ""color:blue"">RED</div></div>","66,71,82",1500,practice,,,incongruent,TRUE,66,,,500,blue,red,-1,-1,poldrack-single-stim,434,843949,0.0-432.0,cf1111e0-cdb2-4166-a3c5-c52b2158a840,,500,500,fixation,,<div class = centerbox><div class = fixation>+</div></div>,none,500,practice,,,,,,,,,,,582,66,poldrack-categorize,435,846462,0.0-433.0,cf1111e0-cdb2-4166-a3c5-c52b2158a840,,1500,250,stim,,"<div class = centerbox><div class = stroop-stim style = ""color:blue"">BLUE</div></div>","66,71,82",1500,practice,,,congruent,TRUE,66,,,500,blue,blue,-1,-1,poldrack-single-stim,436,847223,0.0-434.0,cf1111e0-cdb2-4166-a3c5-c52b2158a840,,500,500,fixation,,<div class = centerbox><div class = fixation>+</div></div>,none,500,practice,,,,,,,,,,,644,71,poldrack-categorize,437,849736,0.0-435.0,cf1111e0-cdb2-4166-a3c5-c52b2158a840,,1500,250,stim,,"<div class = centerbox><div class = stroop-stim style = ""color:green"">GREEN</div></div>","66,71,82",1500,practice,,,congruent,TRUE,71,,,500,green,green,-1,-1,poldrack-single-stim,438,850497,0.0-436.0,cf1111e0-cdb2-4166-a3c5-c52b2158a840,,500,500,fixation,,<div class = centerbox><div class = fixation>+</div></div>,none,500,practice,,,,,,,,,,,1058,82,poldrack-categorize,439,853010,0.0-437.0,cf1111e0-cdb2-4166-a3c5-c52b2158a840,,1500,250,stim,,"<div class = centerbox><div class = stroop-stim style = ""color:red"">BLUE</div></div>","66,71,82",1500,practice,,,incongruent,TRUE,82,,,500,red,blue,3083,13,poldrack-text,440,856348,0.0-439.0,cf1111e0-cdb2-4166-a3c5-c52b2158a840,<div class = centerbox><p class = center-block-text>We will now start the test. Respond exactly like you did during practice.</p><p class = center-block-text>Press <strong>enter</strong> to begin the test.</p></div>,3083,1000,test_intro,,,,,,,,,,,,,,,,-1,-1,poldrack-single-stim,441,857857,0.0-440.0,cf1111e0-cdb2-4166-a3c5-c52b2158a840,,500,500,fixation,,<div class = centerbox><div class = fixation>+</div></div>,none,500,test,,,,,,,,,,,654,71,poldrack-categorize,442,860364,0.0-441.0,cf1111e0-cdb2-4166-a3c5-c52b2158a840,,1500,250,stim,,"<div class = centerbox><div class = stroop-stim style = ""color:green"">GREEN</div></div>","66,71,82",1500,test,,,congruent,TRUE,71,,,500,green,green,-1,-1,poldrack-single-stim,443,861121,0.0-442.0,cf1111e0-cdb2-4166-a3c5-c52b2158a840,,500,500,fixation,,<div class = centerbox><div class = fixation>+</div></div>,none,500,test,,,,,,,,,,,587,82,poldrack-categorize,444,863627,0.0-443.0,cf1111e0-cdb2-4166-a3c5-c52b2158a840,,1500,250,stim,,"<div class = centerbox><div class = stroop-stim style = ""color:red"">RED</div></div>","66,71,82",1500,test,,,congruent,TRUE,82,,,500,red,red,-1,-1,poldrack-single-stim,445,864383,0.0-444.0,cf1111e0-cdb2-4166-a3c5-c52b2158a840,,500,500,fixation,,<div class = centerbox><div class = fixation>+</div></div>,none,500,test,,,,,,,,,,,749,71,poldrack-categorize,446,866895,0.0-445.0,cf1111e0-cdb2-4166-a3c5-c52b2158a840,,1500,250,stim,,"<div class = centerbox><div class = stroop-stim style = ""color:green"">BLUE</div></div>","66,71,82",1500,test,,,incongruent,TRUE,71,,,500,green,blue,-1,-1,poldrack-single-stim,447,867649,0.0-446.0,cf1111e0-cdb2-4166-a3c5-c52b2158a840,,500,500,fixation,,<div class = centerbox><div class = fixation>+</div></div>,none,500,test,,,,,,,,,,,505,66,poldrack-categorize,448,870163,0.0-447.0,cf1111e0-cdb2-4166-a3c5-c52b2158a840,,1500,250,stim,,"<div class = centerbox><div class = stroop-stim style = ""color:blue"">BLUE</div></div>","66,71,82",1500,test,,,congruent,TRUE,66,,,500,blue,blue,-1,-1,poldrack-single-stim,449,870923,0.0-448.0,cf1111e0-cdb2-4166-a3c5-c52b2158a840,,500,500,fixation,,<div class = centerbox><div class = fixation>+</div></div>,none,500,test,,,,,,,,,,,495,82,poldrack-categorize,450,873436,0.0-449.0,cf1111e0-cdb2-4166-a3c5-c52b2158a840,,1500,250,stim,,"<div class = centerbox><div class = stroop-stim style = ""color:red"">RED</div></div>","66,71,82",1500,test,,,congruent,TRUE,82,,,500,red,red,-1,-1,poldrack-single-stim,451,874197,0.0-450.0,cf1111e0-cdb2-4166-a3c5-c52b2158a840,,500,500,fixation,,<div class = centerbox><div class = fixation>+</div></div>,none,500,test,,,,,,,,,,,692,71,poldrack-categorize,452,876710,0.0-451.0,cf1111e0-cdb2-4166-a3c5-c52b2158a840,,1500,250,stim,,"<div class = centerbox><div class = stroop-stim style = ""color:green"">RED</div></div>","66,71,82",1500,test,,,incongruent,TRUE,71,,,500,green,red,-1,-1,poldrack-single-stim,453,877471,0.0-452.0,cf1111e0-cdb2-4166-a3c5-c52b2158a840,,500,500,fixation,,<div class = centerbox><div class = fixation>+</div></div>,none,500,test,,,,,,,,,,,538,82,poldrack-categorize,454,879984,0.0-453.0,cf1111e0-cdb2-4166-a3c5-c52b2158a840,,1500,250,stim,,"<div class = centerbox><div class = stroop-stim style = ""color:red"">RED</div></div>","66,71,82",1500,test,,,congruent,TRUE,82,,,500,red,red,-1,-1,poldrack-single-stim,455,880745,0.0-454.0,cf1111e0-cdb2-4166-a3c5-c52b2158a840,,500,500,fixation,,<div class = centerbox><div class = fixation>+</div></div>,none,500,test,,,,,,,,,,,633,82,poldrack-categorize,456,883258,0.0-455.0,cf1111e0-cdb2-4166-a3c5-c52b2158a840,,1500,250,stim,,"<div class = centerbox><div class = stroop-stim style = ""color:red"">RED</div></div>","66,71,82",1500,test,,,congruent,TRUE,82,,,500,red,red,-1,-1,poldrack-single-stim,457,884018,0.0-456.0,cf1111e0-cdb2-4166-a3c5-c52b2158a840,,500,500,fixation,,<div class = centerbox><div class = fixation>+</div></div>,none,500,test,,,,,,,,,,,535,66,poldrack-categorize,458,886532,0.0-457.0,cf1111e0-cdb2-4166-a3c5-c52b2158a840,,1500,250,stim,,"<div class = centerbox><div class = stroop-stim style = ""color:blue"">RED</div></div>","66,71,82",1500,test,,,incongruent,TRUE,66,,,500,blue,red,-1,-1,poldrack-single-stim,459,887286,0.0-458.0,cf1111e0-cdb2-4166-a3c5-c52b2158a840,,500,500,fixation,,<div class = centerbox><div class = fixation>+</div></div>,none,500,test,,,,,,,,,,,482,71,poldrack-categorize,460,889800,0.0-459.0,cf1111e0-cdb2-4166-a3c5-c52b2158a840,,1500,250,stim,,"<div class = centerbox><div class = stroop-stim style = ""color:green"">BLUE</div></div>","66,71,82",1500,test,,,incongruent,TRUE,71,,,500,green,blue,-1,-1,poldrack-single-stim,461,890560,0.0-460.0,cf1111e0-cdb2-4166-a3c5-c52b2158a840,,500,500,fixation,,<div class = centerbox><div class = fixation>+</div></div>,none,500,test,,,,,,,,,,,560,71,poldrack-categorize,462,893073,0.0-461.0,cf1111e0-cdb2-4166-a3c5-c52b2158a840,,1500,250,stim,,"<div class = centerbox><div class = stroop-stim style = ""color:green"">GREEN</div></div>","66,71,82",1500,test,,,congruent,TRUE,71,,,500,green,green,-1,-1,poldrack-single-stim,463,893828,0.0-462.0,cf1111e0-cdb2-4166-a3c5-c52b2158a840,,500,500,fixation,,<div class = centerbox><div class = fixation>+</div></div>,none,500,test,,,,,,,,,,,492,66,poldrack-categorize,464,896341,0.0-463.0,cf1111e0-cdb2-4166-a3c5-c52b2158a840,,1500,250,stim,,"<div class = centerbox><div class = stroop-stim style = ""color:blue"">GREEN</div></div>","66,71,82",1500,test,,,incongruent,TRUE,66,,,500,blue,green,-1,-1,poldrack-single-stim,465,897102,0.0-464.0,cf1111e0-cdb2-4166-a3c5-c52b2158a840,,500,500,fixation,,<div class = centerbox><div class = fixation>+</div></div>,none,500,test,,,,,,,,,,,715,66,poldrack-categorize,466,899609,0.0-465.0,cf1111e0-cdb2-4166-a3c5-c52b2158a840,,1500,250,stim,,"<div class = centerbox><div class = stroop-stim style = ""color:blue"">RED</div></div>","66,71,82",1500,test,,,incongruent,TRUE,66,,,500,blue,red,-1,-1,poldrack-single-stim,467,900370,0.0-466.0,cf1111e0-cdb2-4166-a3c5-c52b2158a840,,500,500,fixation,,<div class = centerbox><div class = fixation>+</div></div>,none,500,test,,,,,,,,,,,702,71,poldrack-categorize,468,902883,0.0-467.0,cf1111e0-cdb2-4166-a3c5-c52b2158a840,,1500,250,stim,,"<div class = centerbox><div class = stroop-stim style = ""color:green"">GREEN</div></div>","66,71,82",1500,test,,,congruent,TRUE,71,,,500,green,green,-1,-1,poldrack-single-stim,469,903644,0.0-468.0,cf1111e0-cdb2-4166-a3c5-c52b2158a840,,500,500,fixation,,<div class = centerbox><div class = fixation>+</div></div>,none,500,test,,,,,,,,,,,444,82,poldrack-categorize,470,906157,0.0-469.0,cf1111e0-cdb2-4166-a3c5-c52b2158a840,,1500,250,stim,,"<div class = centerbox><div class = stroop-stim style = ""color:red"">RED</div></div>","66,71,82",1500,test,,,congruent,TRUE,82,,,500,red,red,-1,-1,poldrack-single-stim,471,906918,0.0-470.0,cf1111e0-cdb2-4166-a3c5-c52b2158a840,,500,500,fixation,,<div class = centerbox><div class = fixation>+</div></div>,none,500,test,,,,,,,,,,,802,66,poldrack-categorize,472,909431,0.0-471.0,cf1111e0-cdb2-4166-a3c5-c52b2158a840,,1500,250,stim,,"<div class = centerbox><div class = stroop-stim style = ""color:blue"">GREEN</div></div>","66,71,82",1500,test,,,incongruent,TRUE,66,,,500,blue,green,-1,-1,poldrack-single-stim,473,910191,0.0-472.0,cf1111e0-cdb2-4166-a3c5-c52b2158a840,,500,500,fixation,,<div class = centerbox><div class = fixation>+</div></div>,none,500,test,,,,,,,,,,,904,71,poldrack-categorize,474,912705,0.0-473.0,cf1111e0-cdb2-4166-a3c5-c52b2158a840,,1500,250,stim,,"<div class = centerbox><div class = stroop-stim style = ""color:green"">RED</div></div>","66,71,82",1500,test,,,incongruent,TRUE,71,,,500,green,red,-1,-1,poldrack-single-stim,475,913465,0.0-474.0,cf1111e0-cdb2-4166-a3c5-c52b2158a840,,500,500,fixation,,<div class = centerbox><div class = fixation>+</div></div>,none,500,test,,,,,,,,,,,573,66,poldrack-categorize,476,915978,0.0-475.0,cf1111e0-cdb2-4166-a3c5-c52b2158a840,,1500,250,stim,,"<div class = centerbox><div class = stroop-stim style = ""color:blue"">BLUE</div></div>","66,71,82",1500,test,,,congruent,TRUE,66,,,500,blue,blue,-1,-1,poldrack-single-stim,477,916739,0.0-476.0,cf1111e0-cdb2-4166-a3c5-c52b2158a840,,500,500,fixation,,<div class = centerbox><div class = fixation>+</div></div>,none,500,test,,,,,,,,,,,667,66,poldrack-categorize,478,919252,0.0-477.0,cf1111e0-cdb2-4166-a3c5-c52b2158a840,,1500,250,stim,,"<div class = centerbox><div class = stroop-stim style = ""color:blue"">BLUE</div></div>","66,71,82",1500,test,,,congruent,TRUE,66,,,500,blue,blue,-1,-1,poldrack-single-stim,479,920013,0.0-478.0,cf1111e0-cdb2-4166-a3c5-c52b2158a840,,500,500,fixation,,<div class = centerbox><div class = fixation>+</div></div>,none,500,test,,,,,,,,,,,378,82,poldrack-categorize,480,922526,0.0-479.0,cf1111e0-cdb2-4166-a3c5-c52b2158a840,,1500,250,stim,,"<div class = centerbox><div class = stroop-stim style = ""color:red"">BLUE</div></div>","66,71,82",1500,test,,,incongruent,TRUE,82,,,500,red,blue,-1,-1,poldrack-single-stim,481,923286,0.0-480.0,cf1111e0-cdb2-4166-a3c5-c52b2158a840,,500,500,fixation,,<div class = centerbox><div class = fixation>+</div></div>,none,500,test,,,,,,,,,,,1200,66,poldrack-categorize,482,925800,0.0-481.0,cf1111e0-cdb2-4166-a3c5-c52b2158a840,,1500,250,stim,,"<div class = centerbox><div class = stroop-stim style = ""color:blue"">GREEN</div></div>","66,71,82",1500,test,,,incongruent,TRUE,66,,,500,blue,green,-1,-1,poldrack-single-stim,483,926560,0.0-482.0,cf1111e0-cdb2-4166-a3c5-c52b2158a840,,500,500,fixation,,<div class = centerbox><div class = fixation>+</div></div>,none,500,test,,,,,,,,,,,854,71,poldrack-categorize,484,929074,0.0-483.0,cf1111e0-cdb2-4166-a3c5-c52b2158a840,,1500,250,stim,,"<div class = centerbox><div class = stroop-stim style = ""color:green"">RED</div></div>","66,71,82",1500,test,,,incongruent,TRUE,71,,,500,green,red,-1,-1,poldrack-single-stim,485,929834,0.0-484.0,cf1111e0-cdb2-4166-a3c5-c52b2158a840,,500,500,fixation,,<div class = centerbox><div class = fixation>+</div></div>,none,500,test,,,,,,,,,,,596,66,poldrack-categorize,486,932347,0.0-485.0,cf1111e0-cdb2-4166-a3c5-c52b2158a840,,1500,250,stim,,"<div class = centerbox><div class = stroop-stim style = ""color:blue"">RED</div></div>","66,71,82",1500,test,,,incongruent,TRUE,66,,,500,blue,red,-1,-1,poldrack-single-stim,487,933108,0.0-486.0,cf1111e0-cdb2-4166-a3c5-c52b2158a840,,500,500,fixation,,<div class = centerbox><div class = fixation>+</div></div>,none,500,test,,,,,,,,,,,730,71,poldrack-categorize,488,935621,0.0-487.0,cf1111e0-cdb2-4166-a3c5-c52b2158a840,,1500,250,stim,,"<div class = centerbox><div class = stroop-stim style = ""color:green"">GREEN</div></div>","66,71,82",1500,test,,,congruent,TRUE,71,,,500,green,green,-1,-1,poldrack-single-stim,489,936382,0.0-488.0,cf1111e0-cdb2-4166-a3c5-c52b2158a840,,500,500,fixation,,<div class = centerbox><div class = fixation>+</div></div>,none,500,test,,,,,,,,,,,511,66,poldrack-categorize,490,938895,0.0-489.0,cf1111e0-cdb2-4166-a3c5-c52b2158a840,,1500,250,stim,,"<div class = centerbox><div class = stroop-stim style = ""color:blue"">BLUE</div></div>","66,71,82",1500,test,,,congruent,TRUE,66,,,500,blue,blue,-1,-1,poldrack-single-stim,491,939656,0.0-490.0,cf1111e0-cdb2-4166-a3c5-c52b2158a840,,500,500,fixation,,<div class = centerbox><div class = fixation>+</div></div>,none,500,test,,,,,,,,,,,782,71,poldrack-categorize,492,942165,0.0-491.0,cf1111e0-cdb2-4166-a3c5-c52b2158a840,,1500,250,stim,,"<div class = centerbox><div class = stroop-stim style = ""color:green"">BLUE</div></div>","66,71,82",1500,test,,,incongruent,TRUE,71,,,500,green,blue,-1,-1,poldrack-single-stim,493,942924,0.0-492.0,cf1111e0-cdb2-4166-a3c5-c52b2158a840,,500,500,fixation,,<div class = centerbox><div class = fixation>+</div></div>,none,500,test,,,,,,,,,,,626,82,poldrack-categorize,494,945437,0.0-493.0,cf1111e0-cdb2-4166-a3c5-c52b2158a840,,1500,250,stim,,"<div class = centerbox><div class = stroop-stim style = ""color:red"">GREEN</div></div>","66,71,82",1500,test,,,incongruent,TRUE,82,,,500,red,green,-1,-1,poldrack-single-stim,495,946197,0.0-494.0,cf1111e0-cdb2-4166-a3c5-c52b2158a840,,500,500,fixation,,<div class = centerbox><div class = fixation>+</div></div>,none,500,test,,,,,,,,,,,656,82,poldrack-categorize,496,948711,0.0-495.0,cf1111e0-cdb2-4166-a3c5-c52b2158a840,,1500,250,stim,,"<div class = centerbox><div class = stroop-stim style = ""color:red"">RED</div></div>","66,71,82",1500,test,,,congruent,TRUE,82,,,500,red,red,-1,-1,poldrack-single-stim,497,949471,0.0-496.0,cf1111e0-cdb2-4166-a3c5-c52b2158a840,,500,500,fixation,,<div class = centerbox><div class = fixation>+</div></div>,none,500,test,,,,,,,,,,,502,82,poldrack-categorize,498,951984,0.0-497.0,cf1111e0-cdb2-4166-a3c5-c52b2158a840,,1500,250,stim,,"<div class = centerbox><div class = stroop-stim style = ""color:red"">BLUE</div></div>","66,71,82",1500,test,,,incongruent,TRUE,82,,,500,red,blue,-1,-1,poldrack-single-stim,499,952745,0.0-498.0,cf1111e0-cdb2-4166-a3c5-c52b2158a840,,500,500,fixation,,<div class = centerbox><div class = fixation>+</div></div>,none,500,test,,,,,,,,,,,1187,82,poldrack-categorize,500,955258,0.0-499.0,cf1111e0-cdb2-4166-a3c5-c52b2158a840,,1500,250,stim,,"<div class = centerbox><div class = stroop-stim style = ""color:red"">BLUE</div></div>","66,71,82",1500,test,,,incongruent,TRUE,82,,,500,red,blue,-1,-1,poldrack-single-stim,501,956019,0.0-500.0,cf1111e0-cdb2-4166-a3c5-c52b2158a840,,500,500,fixation,,<div class = centerbox><div class = fixation>+</div></div>,none,500,test,,,,,,,,,,,530,71,poldrack-categorize,502,958532,0.0-501.0,cf1111e0-cdb2-4166-a3c5-c52b2158a840,,1500,250,stim,,"<div class = centerbox><div class = stroop-stim style = ""color:green"">RED</div></div>","66,71,82",1500,test,,,incongruent,TRUE,71,,,500,green,red,-1,-1,poldrack-single-stim,503,959293,0.0-502.0,cf1111e0-cdb2-4166-a3c5-c52b2158a840,,500,500,fixation,,<div class = centerbox><div class = fixation>+</div></div>,none,500,test,,,,,,,,,,,568,71,poldrack-categorize,504,961806,0.0-503.0,cf1111e0-cdb2-4166-a3c5-c52b2158a840,,1500,250,stim,,"<div class = centerbox><div class = stroop-stim style = ""color:green"">GREEN</div></div>","66,71,82",1500,test,,,congruent,TRUE,71,,,500,green,green,-1,-1,poldrack-single-stim,505,962566,0.0-504.0,cf1111e0-cdb2-4166-a3c5-c52b2158a840,,500,500,fixation,,<div class = centerbox><div class = fixation>+</div></div>,none,500,test,,,,,,,,,,,614,66,poldrack-categorize,506,965080,0.0-505.0,cf1111e0-cdb2-4166-a3c5-c52b2158a840,,1500,250,stim,,"<div class = centerbox><div class = stroop-stim style = ""color:blue"">GREEN</div></div>","66,71,82",1500,test,,,incongruent,TRUE,66,,,500,blue,green,-1,-1,poldrack-single-stim,507,965838,0.0-506.0,cf1111e0-cdb2-4166-a3c5-c52b2158a840,,500,500,fixation,,<div class = centerbox><div class = fixation>+</div></div>,none,500,test,,,,,,,,,,,737,82,poldrack-categorize,508,968348,0.0-507.0,cf1111e0-cdb2-4166-a3c5-c52b2158a840,,1500,250,stim,,"<div class = centerbox><div class = stroop-stim style = ""color:red"">GREEN</div></div>","66,71,82",1500,test,,,incongruent,TRUE,82,,,500,red,green,-1,-1,poldrack-single-stim,509,969108,0.0-508.0,cf1111e0-cdb2-4166-a3c5-c52b2158a840,,500,500,fixation,,<div class = centerbox><div class = fixation>+</div></div>,none,500,test,,,,,,,,,,,1151,71,poldrack-categorize,510,971617,0.0-509.0,cf1111e0-cdb2-4166-a3c5-c52b2158a840,,1500,250,stim,,"<div class = centerbox><div class = stroop-stim style = ""color:green"">BLUE</div></div>","66,71,82",1500,test,,,incongruent,TRUE,71,,,500,green,blue,-1,-1,poldrack-single-stim,511,972376,0.0-510.0,cf1111e0-cdb2-4166-a3c5-c52b2158a840,,500,500,fixation,,<div class = centerbox><div class = fixation>+</div></div>,none,500,test,,,,,,,,,,,875,66,poldrack-categorize,512,974889,0.0-511.0,cf1111e0-cdb2-4166-a3c5-c52b2158a840,,1500,250,stim,,"<div class = centerbox><div class = stroop-stim style = ""color:blue"">BLUE</div></div>","66,71,82",1500,test,,,congruent,TRUE,66,,,500,blue,blue,-1,-1,poldrack-single-stim,513,975650,0.0-512.0,cf1111e0-cdb2-4166-a3c5-c52b2158a840,,500,500,fixation,,<div class = centerbox><div class = fixation>+</div></div>,none,500,test,,,,,,,,,,,561,82,poldrack-categorize,514,978163,0.0-513.0,cf1111e0-cdb2-4166-a3c5-c52b2158a840,,1500,250,stim,,"<div class = centerbox><div class = stroop-stim style = ""color:red"">GREEN</div></div>","66,71,82",1500,test,,,incongruent,TRUE,82,,,500,red,green,-1,-1,poldrack-single-stim,515,978924,0.0-514.0,cf1111e0-cdb2-4166-a3c5-c52b2158a840,,500,500,fixation,,<div class = centerbox><div class = fixation>+</div></div>,none,500,test,,,,,,,,,,,942,71,poldrack-categorize,516,981433,0.0-515.0,cf1111e0-cdb2-4166-a3c5-c52b2158a840,,1500,250,stim,,"<div class = centerbox><div class = stroop-stim style = ""color:green"">RED</div></div>","66,71,82",1500,test,,,incongruent,TRUE,71,,,500,green,red,-1,-1,poldrack-single-stim,517,982192,0.0-516.0,cf1111e0-cdb2-4166-a3c5-c52b2158a840,,500,500,fixation,,<div class = centerbox><div class = fixation>+</div></div>,none,500,test,,,,,,,,,,,706,82,poldrack-categorize,518,984705,0.0-517.0,cf1111e0-cdb2-4166-a3c5-c52b2158a840,,1500,250,stim,,"<div class = centerbox><div class = stroop-stim style = ""color:red"">GREEN</div></div>","66,71,82",1500,test,,,incongruent,TRUE,82,,,500,red,green,-1,-1,poldrack-single-stim,519,985466,0.0-518.0,cf1111e0-cdb2-4166-a3c5-c52b2158a840,,500,500,fixation,,<div class = centerbox><div class = fixation>+</div></div>,none,500,test,,,,,,,,,,,481,82,poldrack-categorize,520,987975,0.0-519.0,cf1111e0-cdb2-4166-a3c5-c52b2158a840,,1500,250,stim,,"<div class = centerbox><div class = stroop-stim style = ""color:red"">RED</div></div>","66,71,82",1500,test,,,congruent,TRUE,82,,,500,red,red,-1,-1,poldrack-single-stim,521,988734,0.0-520.0,cf1111e0-cdb2-4166-a3c5-c52b2158a840,,500,500,fixation,,<div class = centerbox><div class = fixation>+</div></div>,none,500,test,,,,,,,,,,,893,82,poldrack-categorize,522,991247,0.0-521.0,cf1111e0-cdb2-4166-a3c5-c52b2158a840,,1500,250,stim,,"<div class = centerbox><div class = stroop-stim style = ""color:red"">RED</div></div>","66,71,82",1500,test,,,congruent,TRUE,82,,,500,red,red,-1,-1,poldrack-single-stim,523,992007,0.0-522.0,cf1111e0-cdb2-4166-a3c5-c52b2158a840,,500,500,fixation,,<div class = centerbox><div class = fixation>+</div></div>,none,500,test,,,,,,,,,,,586,82,poldrack-categorize,524,994518,0.0-523.0,cf1111e0-cdb2-4166-a3c5-c52b2158a840,,1500,250,stim,,"<div class = centerbox><div class = stroop-stim style = ""color:red"">RED</div></div>","66,71,82",1500,test,,,congruent,TRUE,82,,,500,red,red,-1,-1,poldrack-single-stim,525,995275,0.0-524.0,cf1111e0-cdb2-4166-a3c5-c52b2158a840,,500,500,fixation,,<div class = centerbox><div class = fixation>+</div></div>,none,500,test,,,,,,,,,,,711,66,poldrack-categorize,526,997789,0.0-525.0,cf1111e0-cdb2-4166-a3c5-c52b2158a840,,1500,250,stim,,"<div class = centerbox><div class = stroop-stim style = ""color:blue"">BLUE</div></div>","66,71,82",1500,test,,,congruent,TRUE,66,,,500,blue,blue,-1,-1,poldrack-single-stim,527,998549,0.0-526.0,cf1111e0-cdb2-4166-a3c5-c52b2158a840,,500,500,fixation,,<div class = centerbox><div class = fixation>+</div></div>,none,500,test,,,,,,,,,,,1092,71,poldrack-categorize,528,1001062,0.0-527.0,cf1111e0-cdb2-4166-a3c5-c52b2158a840,,1500,250,stim,,"<div class = centerbox><div class = stroop-stim style = ""color:green"">GREEN</div></div>","66,71,82",1500,test,,,congruent,TRUE,71,,,500,green,green,-1,-1,poldrack-single-stim,529,1001823,0.0-528.0,cf1111e0-cdb2-4166-a3c5-c52b2158a840,,500,500,fixation,,<div class = centerbox><div class = fixation>+</div></div>,none,500,test,,,,,,,,,,,618,82,poldrack-categorize,530,1004336,0.0-529.0,cf1111e0-cdb2-4166-a3c5-c52b2158a840,,1500,250,stim,,"<div class = centerbox><div class = stroop-stim style = ""color:red"">GREEN</div></div>","66,71,82",1500,test,,,incongruent,TRUE,82,,,500,red,green,-1,-1,poldrack-single-stim,531,1005097,0.0-530.0,cf1111e0-cdb2-4166-a3c5-c52b2158a840,,500,500,fixation,,<div class = centerbox><div class = fixation>+</div></div>,none,500,test,,,,,,,,,,,848,71,poldrack-categorize,532,1007610,0.0-531.0,cf1111e0-cdb2-4166-a3c5-c52b2158a840,,1500,250,stim,,"<div class = centerbox><div class = stroop-stim style = ""color:green"">BLUE</div></div>","66,71,82",1500,test,,,incongruent,TRUE,71,,,500,green,blue,-1,-1,poldrack-single-stim,533,1008370,0.0-532.0,cf1111e0-cdb2-4166-a3c5-c52b2158a840,,500,500,fixation,,<div class = centerbox><div class = fixation>+</div></div>,none,500,test,,,,,,,,,,,759,66,poldrack-categorize,534,1010882,0.0-533.0,cf1111e0-cdb2-4166-a3c5-c52b2158a840,,1500,250,stim,,"<div class = centerbox><div class = stroop-stim style = ""color:blue"">RED</div></div>","66,71,82",1500,test,,,incongruent,TRUE,66,,,500,blue,red,-1,-1,poldrack-single-stim,535,1011639,0.0-534.0,cf1111e0-cdb2-4166-a3c5-c52b2158a840,,500,500,fixation,,<div class = centerbox><div class = fixation>+</div></div>,none,500,test,,,,,,,,,,,714,82,poldrack-categorize,536,1014152,0.0-535.0,cf1111e0-cdb2-4166-a3c5-c52b2158a840,,1500,250,stim,,"<div class = centerbox><div class = stroop-stim style = ""color:red"">BLUE</div></div>","66,71,82",1500,test,,,incongruent,TRUE,82,,,500,red,blue,-1,-1,poldrack-single-stim,537,1014907,0.0-536.0,cf1111e0-cdb2-4166-a3c5-c52b2158a840,,500,500,fixation,,<div class = centerbox><div class = fixation>+</div></div>,none,500,test,,,,,,,,,,,502,71,poldrack-categorize,538,1017420,0.0-537.0,cf1111e0-cdb2-4166-a3c5-c52b2158a840,,1500,250,stim,,"<div class = centerbox><div class = stroop-stim style = ""color:green"">GREEN</div></div>","66,71,82",1500,test,,,congruent,TRUE,71,,,500,green,green,-1,-1,poldrack-single-stim,539,1018181,0.0-538.0,cf1111e0-cdb2-4166-a3c5-c52b2158a840,,500,500,fixation,,<div class = centerbox><div class = fixation>+</div></div>,none,500,test,,,,,,,,,,,1139,66,poldrack-categorize,540,1020694,0.0-539.0,cf1111e0-cdb2-4166-a3c5-c52b2158a840,,1500,250,stim,,"<div class = centerbox><div class = stroop-stim style = ""color:blue"">RED</div></div>","66,71,82",1500,test,,,incongruent,TRUE,66,,,500,blue,red,-1,-1,poldrack-single-stim,541,1021454,0.0-540.0,cf1111e0-cdb2-4166-a3c5-c52b2158a840,,500,500,fixation,,<div class = centerbox><div class = fixation>+</div></div>,none,500,test,,,,,,,,,,,938,71,poldrack-categorize,542,1023967,0.0-541.0,cf1111e0-cdb2-4166-a3c5-c52b2158a840,,1500,250,stim,,"<div class = centerbox><div class = stroop-stim style = ""color:green"">BLUE</div></div>","66,71,82",1500,test,,,incongruent,TRUE,71,,,500,green,blue,-1,-1,poldrack-single-stim,543,1024722,0.0-542.0,cf1111e0-cdb2-4166-a3c5-c52b2158a840,,500,500,fixation,,<div class = centerbox><div class = fixation>+</div></div>,none,500,test,,,,,,,,,,,790,82,poldrack-categorize,544,1027235,0.0-543.0,cf1111e0-cdb2-4166-a3c5-c52b2158a840,,1500,250,stim,,"<div class = centerbox><div class = stroop-stim style = ""color:red"">BLUE</div></div>","66,71,82",1500,test,,,incongruent,TRUE,82,,,500,red,blue,-1,-1,poldrack-single-stim,545,1027996,0.0-544.0,cf1111e0-cdb2-4166-a3c5-c52b2158a840,,500,500,fixation,,<div class = centerbox><div class = fixation>+</div></div>,none,500,test,,,,,,,,,,,556,82,poldrack-categorize,546,1030509,0.0-545.0,cf1111e0-cdb2-4166-a3c5-c52b2158a840,,1500,250,stim,,"<div class = centerbox><div class = stroop-stim style = ""color:red"">RED</div></div>","66,71,82",1500,test,,,congruent,TRUE,82,,,500,red,red,-1,-1,poldrack-single-stim,547,1031270,0.0-546.0,cf1111e0-cdb2-4166-a3c5-c52b2158a840,,500,500,fixation,,<div class = centerbox><div class = fixation>+</div></div>,none,500,test,,,,,,,,,,,705,66,poldrack-categorize,548,1033783,0.0-547.0,cf1111e0-cdb2-4166-a3c5-c52b2158a840,,1500,250,stim,,"<div class = centerbox><div class = stroop-stim style = ""color:blue"">BLUE</div></div>","66,71,82",1500,test,,,congruent,TRUE,66,,,500,blue,blue,-1,-1,poldrack-single-stim,549,1034538,0.0-548.0,cf1111e0-cdb2-4166-a3c5-c52b2158a840,,500,500,fixation,,<div class = centerbox><div class = fixation>+</div></div>,none,500,test,,,,,,,,,,,470,82,poldrack-categorize,550,1037045,0.0-549.0,cf1111e0-cdb2-4166-a3c5-c52b2158a840,,1500,250,stim,,"<div class = centerbox><div class = stroop-stim style = ""color:red"">RED</div></div>","66,71,82",1500,test,,,congruent,TRUE,82,,,500,red,red,-1,-1,poldrack-single-stim,551,1037806,0.0-550.0,cf1111e0-cdb2-4166-a3c5-c52b2158a840,,500,500,fixation,,<div class = centerbox><div class = fixation>+</div></div>,none,500,test,,,,,,,,,,,825,66,poldrack-categorize,552,1040946,0.0-551.0,cf1111e0-cdb2-4166-a3c5-c52b2158a840,,1500,250,stim,,"<div class = centerbox><div class = stroop-stim style = ""color:blue"">RED</div></div>","66,71,82",1500,test,,,incongruent,TRUE,66,,,500,blue,red,-1,-1,poldrack-single-stim,553,1041705,0.0-552.0,cf1111e0-cdb2-4166-a3c5-c52b2158a840,,500,500,fixation,,<div class = centerbox><div class = fixation>+</div></div>,none,500,test,,,,,,,,,,,652,82,poldrack-categorize,554,1044214,0.0-553.0,cf1111e0-cdb2-4166-a3c5-c52b2158a840,,1500,250,stim,,"<div class = centerbox><div class = stroop-stim style = ""color:red"">RED</div></div>","66,71,82",1500,test,,,congruent,TRUE,82,,,500,red,red,-1,-1,poldrack-single-stim,555,1044974,0.0-554.0,cf1111e0-cdb2-4166-a3c5-c52b2158a840,,500,500,fixation,,<div class = centerbox><div class = fixation>+</div></div>,none,500,test,,,,,,,,,,,866,71,poldrack-categorize,556,1047488,0.0-555.0,cf1111e0-cdb2-4166-a3c5-c52b2158a840,,1500,250,stim,,"<div class = centerbox><div class = stroop-stim style = ""color:green"">RED</div></div>","66,71,82",1500,test,,,incongruent,TRUE,71,,,500,green,red,-1,-1,poldrack-single-stim,557,1048248,0.0-556.0,cf1111e0-cdb2-4166-a3c5-c52b2158a840,,500,500,fixation,,<div class = centerbox><div class = fixation>+</div></div>,none,500,test,,,,,,,,,,,801,71,poldrack-categorize,558,1050762,0.0-557.0,cf1111e0-cdb2-4166-a3c5-c52b2158a840,,1500,250,stim,,"<div class = centerbox><div class = stroop-stim style = ""color:green"">RED</div></div>","66,71,82",1500,test,,,incongruent,TRUE,71,,,500,green,red,-1,-1,poldrack-single-stim,559,1051522,0.0-558.0,cf1111e0-cdb2-4166-a3c5-c52b2158a840,,500,500,fixation,,<div class = centerbox><div class = fixation>+</div></div>,none,500,test,,,,,,,,,,,703,71,poldrack-categorize,560,1054035,0.0-559.0,cf1111e0-cdb2-4166-a3c5-c52b2158a840,,1500,250,stim,,"<div class = centerbox><div class = stroop-stim style = ""color:green"">GREEN</div></div>","66,71,82",1500,test,,,congruent,TRUE,71,,,500,green,green,-1,-1,poldrack-single-stim,561,1054796,0.0-560.0,cf1111e0-cdb2-4166-a3c5-c52b2158a840,,500,500,fixation,,<div class = centerbox><div class = fixation>+</div></div>,none,500,test,,,,,,,,,,,701,66,poldrack-categorize,562,1057309,0.0-561.0,cf1111e0-cdb2-4166-a3c5-c52b2158a840,,1500,250,stim,,"<div class = centerbox><div class = stroop-stim style = ""color:blue"">BLUE</div></div>","66,71,82",1500,test,,,congruent,TRUE,66,,,500,blue,blue,-1,-1,poldrack-single-stim,563,1058066,0.0-562.0,cf1111e0-cdb2-4166-a3c5-c52b2158a840,,500,500,fixation,,<div class = centerbox><div class = fixation>+</div></div>,none,500,test,,,,,,,,,,,729,71,poldrack-categorize,564,1060577,0.0-563.0,cf1111e0-cdb2-4166-a3c5-c52b2158a840,,1500,250,stim,,"<div class = centerbox><div class = stroop-stim style = ""color:green"">GREEN</div></div>","66,71,82",1500,test,,,congruent,TRUE,71,,,500,green,green,-1,-1,poldrack-single-stim,565,1061338,0.0-564.0,cf1111e0-cdb2-4166-a3c5-c52b2158a840,,500,500,fixation,,<div class = centerbox><div class = fixation>+</div></div>,none,500,test,,,,,,,,,,,630,66,poldrack-categorize,566,1063851,0.0-565.0,cf1111e0-cdb2-4166-a3c5-c52b2158a840,,1500,250,stim,,"<div class = centerbox><div class = stroop-stim style = ""color:blue"">BLUE</div></div>","66,71,82",1500,test,,,congruent,TRUE,66,,,500,blue,blue,-1,-1,poldrack-single-stim,567,1064612,0.0-566.0,cf1111e0-cdb2-4166-a3c5-c52b2158a840,,500,500,fixation,,<div class = centerbox><div class = fixation>+</div></div>,none,500,test,,,,,,,,,,,1037,66,poldrack-categorize,568,1067119,0.0-567.0,cf1111e0-cdb2-4166-a3c5-c52b2158a840,,1500,250,stim,,"<div class = centerbox><div class = stroop-stim style = ""color:blue"">GREEN</div></div>","66,71,82",1500,test,,,incongruent,TRUE,66,,,500,blue,green,-1,-1,poldrack-single-stim,569,1067880,0.0-568.0,cf1111e0-cdb2-4166-a3c5-c52b2158a840,,500,500,fixation,,<div class = centerbox><div class = fixation>+</div></div>,none,500,test,,,,,,,,,,,776,71,poldrack-categorize,570,1070393,0.0-569.0,cf1111e0-cdb2-4166-a3c5-c52b2158a840,,1500,250,stim,,"<div class = centerbox><div class = stroop-stim style = ""color:green"">GREEN</div></div>","66,71,82",1500,test,,,congruent,TRUE,71,,,500,green,green,-1,-1,poldrack-single-stim,571,1071150,0.0-570.0,cf1111e0-cdb2-4166-a3c5-c52b2158a840,,500,500,fixation,,<div class = centerbox><div class = fixation>+</div></div>,none,500,test,,,,,,,,,,,-1,-1,poldrack-categorize,572,1073661,0.0-571.0,cf1111e0-cdb2-4166-a3c5-c52b2158a840,,1500,250,stim,,"<div class = centerbox><div class = stroop-stim style = ""color:red"">BLUE</div></div>","66,71,82",1500,test,,,incongruent,FALSE,82,,,500,red,blue,-1,-1,poldrack-single-stim,573,1074422,0.0-572.0,cf1111e0-cdb2-4166-a3c5-c52b2158a840,,500,500,fixation,,<div class = centerbox><div class = fixation>+</div></div>,none,500,test,,,,,,,,,,,1378,66,poldrack-categorize,574,1076935,0.0-573.0,cf1111e0-cdb2-4166-a3c5-c52b2158a840,,1500,250,stim,,"<div class = centerbox><div class = stroop-stim style = ""color:blue"">GREEN</div></div>","66,71,82",1500,test,,,incongruent,TRUE,66,,,500,blue,green,-1,-1,poldrack-single-stim,575,1077696,0.0-574.0,cf1111e0-cdb2-4166-a3c5-c52b2158a840,,500,500,fixation,,<div class = centerbox><div class = fixation>+</div></div>,none,500,test,,,,,,,,,,,816,66,poldrack-categorize,576,1080206,0.0-575.0,cf1111e0-cdb2-4166-a3c5-c52b2158a840,,1500,250,stim,,"<div class = centerbox><div class = stroop-stim style = ""color:blue"">BLUE</div></div>","66,71,82",1500,test,,,congruent,TRUE,66,,,500,blue,blue,-1,-1,poldrack-single-stim,577,1080964,0.0-576.0,cf1111e0-cdb2-4166-a3c5-c52b2158a840,,500,500,fixation,,<div class = centerbox><div class = fixation>+</div></div>,none,500,test,,,,,,,,,,,668,66,poldrack-categorize,578,1083477,0.0-577.0,cf1111e0-cdb2-4166-a3c5-c52b2158a840,,1500,250,stim,,"<div class = centerbox><div class = stroop-stim style = ""color:blue"">BLUE</div></div>","66,71,82",1500,test,,,congruent,TRUE,66,,,500,blue,blue,-1,-1,poldrack-single-stim,579,1084238,0.0-578.0,cf1111e0-cdb2-4166-a3c5-c52b2158a840,,500,500,fixation,,<div class = centerbox><div class = fixation>+</div></div>,none,500,test,,,,,,,,,,,618,71,poldrack-categorize,580,1086751,0.0-579.0,cf1111e0-cdb2-4166-a3c5-c52b2158a840,,1500,250,stim,,"<div class = centerbox><div class = stroop-stim style = ""color:green"">GREEN</div></div>","66,71,82",1500,test,,,congruent,TRUE,71,,,500,green,green,-1,-1,poldrack-single-stim,581,1087512,0.0-580.0,cf1111e0-cdb2-4166-a3c5-c52b2158a840,,500,500,fixation,,<div class = centerbox><div class = fixation>+</div></div>,none,500,test,,,,,,,,,,,552,82,poldrack-categorize,582,1090025,0.0-581.0,cf1111e0-cdb2-4166-a3c5-c52b2158a840,,1500,250,stim,,"<div class = centerbox><div class = stroop-stim style = ""color:red"">RED</div></div>","66,71,82",1500,test,,,congruent,TRUE,82,,,500,red,red,-1,-1,poldrack-single-stim,583,1090784,0.0-582.0,cf1111e0-cdb2-4166-a3c5-c52b2158a840,,500,500,fixation,,<div class = centerbox><div class = fixation>+</div></div>,none,500,test,,,,,,,,,,,618,71,poldrack-categorize,584,1093293,0.0-583.0,cf1111e0-cdb2-4166-a3c5-c52b2158a840,,1500,250,stim,,"<div class = centerbox><div class = stroop-stim style = ""color:green"">GREEN</div></div>","66,71,82",1500,test,,,congruent,TRUE,71,,,500,green,green,-1,-1,poldrack-single-stim,585,1094053,0.0-584.0,cf1111e0-cdb2-4166-a3c5-c52b2158a840,,500,500,fixation,,<div class = centerbox><div class = fixation>+</div></div>,none,500,test,,,,,,,,,,,641,66,poldrack-categorize,586,1096567,0.0-585.0,cf1111e0-cdb2-4166-a3c5-c52b2158a840,,1500,250,stim,,"<div class = centerbox><div class = stroop-stim style = ""color:blue"">BLUE</div></div>","66,71,82",1500,test,,,congruent,TRUE,66,,,500,blue,blue,-1,-1,poldrack-single-stim,587,1097328,0.0-586.0,cf1111e0-cdb2-4166-a3c5-c52b2158a840,,500,500,fixation,,<div class = centerbox><div class = fixation>+</div></div>,none,500,test,,,,,,,,,,,1040,66,poldrack-categorize,588,1099841,0.0-587.0,cf1111e0-cdb2-4166-a3c5-c52b2158a840,,1500,250,stim,,"<div class = centerbox><div class = stroop-stim style = ""color:blue"">RED</div></div>","66,71,82",1500,test,,,incongruent,TRUE,66,,,500,blue,red,-1,-1,poldrack-single-stim,589,1100599,0.0-588.0,cf1111e0-cdb2-4166-a3c5-c52b2158a840,,500,500,fixation,,<div class = centerbox><div class = fixation>+</div></div>,none,500,test,,,,,,,,,,,819,71,poldrack-categorize,590,1103109,0.0-589.0,cf1111e0-cdb2-4166-a3c5-c52b2158a840,,1500,250,stim,,"<div class = centerbox><div class = stroop-stim style = ""color:green"">RED</div></div>","66,71,82",1500,test,,,incongruent,TRUE,71,,,500,green,red,-1,-1,poldrack-single-stim,591,1103870,0.0-590.0,cf1111e0-cdb2-4166-a3c5-c52b2158a840,,500,500,fixation,,<div class = centerbox><div class = fixation>+</div></div>,none,500,test,,,,,,,,,,,714,82,poldrack-categorize,592,1106383,0.0-591.0,cf1111e0-cdb2-4166-a3c5-c52b2158a840,,1500,250,stim,,"<div class = centerbox><div class = stroop-stim style = ""color:red"">BLUE</div></div>","66,71,82",1500,test,,,incongruent,TRUE,82,,,500,red,blue,-1,-1,poldrack-single-stim,593,1107144,0.0-592.0,cf1111e0-cdb2-4166-a3c5-c52b2158a840,,500,500,fixation,,<div class = centerbox><div class = fixation>+</div></div>,none,500,test,,,,,,,,,,,776,71,poldrack-categorize,594,1109657,0.0-593.0,cf1111e0-cdb2-4166-a3c5-c52b2158a840,,1500,250,stim,,"<div class = centerbox><div class = stroop-stim style = ""color:green"">GREEN</div></div>","66,71,82",1500,test,,,congruent,TRUE,71,,,500,green,green,-1,-1,poldrack-single-stim,595,1110418,0.0-594.0,cf1111e0-cdb2-4166-a3c5-c52b2158a840,,500,500,fixation,,<div class = centerbox><div class = fixation>+</div></div>,none,500,test,,,,,,,,,,,637,71,poldrack-categorize,596,1112931,0.0-595.0,cf1111e0-cdb2-4166-a3c5-c52b2158a840,,1500,250,stim,,"<div class = centerbox><div class = stroop-stim style = ""color:green"">GREEN</div></div>","66,71,82",1500,test,,,congruent,TRUE,71,,,500,green,green,-1,-1,poldrack-single-stim,597,1113692,0.0-596.0,cf1111e0-cdb2-4166-a3c5-c52b2158a840,,500,500,fixation,,<div class = centerbox><div class = fixation>+</div></div>,none,500,test,,,,,,,,,,,548,82,poldrack-categorize,598,1116205,0.0-597.0,cf1111e0-cdb2-4166-a3c5-c52b2158a840,,1500,250,stim,,"<div class = centerbox><div class = stroop-stim style = ""color:red"">GREEN</div></div>","66,71,82",1500,test,,,incongruent,TRUE,82,,,500,red,green,-1,-1,poldrack-single-stim,599,1116965,0.0-598.0,cf1111e0-cdb2-4166-a3c5-c52b2158a840,,500,500,fixation,,<div class = centerbox><div class = fixation>+</div></div>,none,500,test,,,,,,,,,,,873,66,poldrack-categorize,600,1119479,0.0-599.0,cf1111e0-cdb2-4166-a3c5-c52b2158a840,,1500,250,stim,,"<div class = centerbox><div class = stroop-stim style = ""color:blue"">GREEN</div></div>","66,71,82",1500,test,,,incongruent,TRUE,66,,,500,blue,green,-1,-1,poldrack-single-stim,601,1120239,0.0-600.0,cf1111e0-cdb2-4166-a3c5-c52b2158a840,,500,500,fixation,,<div class = centerbox><div class = fixation>+</div></div>,none,500,test,,,,,,,,,,,599,82,poldrack-categorize,602,1122753,0.0-601.0,cf1111e0-cdb2-4166-a3c5-c52b2158a840,,1500,250,stim,,"<div class = centerbox><div class = stroop-stim style = ""color:red"">RED</div></div>","66,71,82",1500,test,,,congruent,TRUE,82,,,500,red,red,-1,-1,poldrack-single-stim,603,1123513,0.0-602.0,cf1111e0-cdb2-4166-a3c5-c52b2158a840,,500,500,fixation,,<div class = centerbox><div class = fixation>+</div></div>,none,500,test,,,,,,,,,,,1174,82,poldrack-categorize,604,1126027,0.0-603.0,cf1111e0-cdb2-4166-a3c5-c52b2158a840,,1500,250,stim,,"<div class = centerbox><div class = stroop-stim style = ""color:red"">GREEN</div></div>","66,71,82",1500,test,,,incongruent,TRUE,82,,,500,red,green,-1,-1,poldrack-single-stim,605,1126787,0.0-604.0,cf1111e0-cdb2-4166-a3c5-c52b2158a840,,500,500,fixation,,<div class = centerbox><div class = fixation>+</div></div>,none,500,test,,,,,,,,,,,1019,82,poldrack-categorize,606,1129300,0.0-605.0,cf1111e0-cdb2-4166-a3c5-c52b2158a840,,1500,250,stim,,"<div class = centerbox><div class = stroop-stim style = ""color:red"">BLUE</div></div>","66,71,82",1500,test,,,incongruent,TRUE,82,,,500,red,blue,-1,-1,poldrack-single-stim,607,1130060,0.0-606.0,cf1111e0-cdb2-4166-a3c5-c52b2158a840,,500,500,fixation,,<div class = centerbox><div class = fixation>+</div></div>,none,500,test,,,,,,,,,,,519,71,poldrack-categorize,608,1132565,0.0-607.0,cf1111e0-cdb2-4166-a3c5-c52b2158a840,,1500,250,stim,,"<div class = centerbox><div class = stroop-stim style = ""color:green"">GREEN</div></div>","66,71,82",1500,test,,,congruent,TRUE,71,,,500,green,green,-1,-1,poldrack-single-stim,609,1133323,0.0-608.0,cf1111e0-cdb2-4166-a3c5-c52b2158a840,,500,500,fixation,,<div class = centerbox><div class = fixation>+</div></div>,none,500,test,,,,,,,,,,,651,66,poldrack-categorize,610,1135837,0.0-609.0,cf1111e0-cdb2-4166-a3c5-c52b2158a840,,1500,250,stim,,"<div class = centerbox><div class = stroop-stim style = ""color:blue"">BLUE</div></div>","66,71,82",1500,test,,,congruent,TRUE,66,,,500,blue,blue,-1,-1,poldrack-single-stim,611,1136597,0.0-610.0,cf1111e0-cdb2-4166-a3c5-c52b2158a840,,500,500,fixation,,<div class = centerbox><div class = fixation>+</div></div>,none,500,test,,,,,,,,,,,585,71,poldrack-categorize,612,1139110,0.0-611.0,cf1111e0-cdb2-4166-a3c5-c52b2158a840,,1500,250,stim,,"<div class = centerbox><div class = stroop-stim style = ""color:green"">BLUE</div></div>","66,71,82",1500,test,,,incongruent,TRUE,71,,,500,green,blue,-1,-1,poldrack-single-stim,613,1139871,0.0-612.0,cf1111e0-cdb2-4166-a3c5-c52b2158a840,,500,500,fixation,,<div class = centerbox><div class = fixation>+</div></div>,none,500,test,,,,,,,,,,,575,82,poldrack-categorize,614,1142384,0.0-613.0,cf1111e0-cdb2-4166-a3c5-c52b2158a840,,1500,250,stim,,"<div class = centerbox><div class = stroop-stim style = ""color:red"">RED</div></div>","66,71,82",1500,test,,,congruent,TRUE,82,,,500,red,red,-1,-1,poldrack-single-stim,615,1143145,0.0-614.0,cf1111e0-cdb2-4166-a3c5-c52b2158a840,,500,500,fixation,,<div class = centerbox><div class = fixation>+</div></div>,none,500,test,,,,,,,,,,,526,71,poldrack-categorize,616,1145658,0.0-615.0,cf1111e0-cdb2-4166-a3c5-c52b2158a840,,1500,250,stim,,"<div class = centerbox><div class = stroop-stim style = ""color:green"">GREEN</div></div>","66,71,82",1500,test,,,congruent,TRUE,71,,,500,green,green,-1,-1,poldrack-single-stim,617,1146413,0.0-616.0,cf1111e0-cdb2-4166-a3c5-c52b2158a840,,500,500,fixation,,<div class = centerbox><div class = fixation>+</div></div>,none,500,test,,,,,,,,,,,721,82,poldrack-categorize,618,1148926,0.0-617.0,cf1111e0-cdb2-4166-a3c5-c52b2158a840,,1500,250,stim,,"<div class = centerbox><div class = stroop-stim style = ""color:red"">GREEN</div></div>","66,71,82",1500,test,,,incongruent,TRUE,82,,,500,red,green,-1,-1,poldrack-single-stim,619,1149687,0.0-618.0,cf1111e0-cdb2-4166-a3c5-c52b2158a840,,500,500,fixation,,<div class = centerbox><div class = fixation>+</div></div>,none,500,test,,,,,,,,,,,775,66,poldrack-categorize,620,1152200,0.0-619.0,cf1111e0-cdb2-4166-a3c5-c52b2158a840,,1500,250,stim,,"<div class = centerbox><div class = stroop-stim style = ""color:blue"">GREEN</div></div>","66,71,82",1500,test,,,incongruent,TRUE,66,,,500,blue,green,-1,-1,poldrack-single-stim,621,1152961,0.0-620.0,cf1111e0-cdb2-4166-a3c5-c52b2158a840,,500,500,fixation,,<div class = centerbox><div class = fixation>+</div></div>,none,500,test,,,,,,,,,,,668,66,poldrack-categorize,622,1155474,0.0-621.0,cf1111e0-cdb2-4166-a3c5-c52b2158a840,,1500,250,stim,,"<div class = centerbox><div class = stroop-stim style = ""color:blue"">BLUE</div></div>","66,71,82",1500,test,,,congruent,TRUE,66,,,500,blue,blue,-1,-1,poldrack-single-stim,623,1156229,0.0-622.0,cf1111e0-cdb2-4166-a3c5-c52b2158a840,,500,500,fixation,,<div class = centerbox><div class = fixation>+</div></div>,none,500,test,,,,,,,,,,,816,66,poldrack-categorize,624,1158742,0.0-623.0,cf1111e0-cdb2-4166-a3c5-c52b2158a840,,1500,250,stim,,"<div class = centerbox><div class = stroop-stim style = ""color:blue"">BLUE</div></div>","66,71,82",1500,test,,,congruent,TRUE,66,,,500,blue,blue,-1,-1,poldrack-single-stim,625,1159503,0.0-624.0,cf1111e0-cdb2-4166-a3c5-c52b2158a840,,500,500,fixation,,<div class = centerbox><div class = fixation>+</div></div>,none,500,test,,,,,,,,,,,542,82,poldrack-categorize,626,1162016,0.0-625.0,cf1111e0-cdb2-4166-a3c5-c52b2158a840,,1500,250,stim,,"<div class = centerbox><div class = stroop-stim style = ""color:blue"">RED</div></div>","66,71,82",1500,test,,,incongruent,FALSE,66,,,500,blue,red,-1,-1,poldrack-single-stim,627,1162777,0.0-626.0,cf1111e0-cdb2-4166-a3c5-c52b2158a840,,500,500,fixation,,<div class = centerbox><div class = fixation>+</div></div>,none,500,test,,,,,,,,,,,1460,71,poldrack-categorize,628,1165290,0.0-627.0,cf1111e0-cdb2-4166-a3c5-c52b2158a840,,1500,250,stim,,"<div class = centerbox><div class = stroop-stim style = ""color:green"">BLUE</div></div>","66,71,82",1500,test,,,incongruent,TRUE,71,,,500,green,blue,-1,-1,poldrack-single-stim,629,1166051,0.0-628.0,cf1111e0-cdb2-4166-a3c5-c52b2158a840,,500,500,fixation,,<div class = centerbox><div class = fixation>+</div></div>,none,500,test,,,,,,,,,,,675,66,poldrack-categorize,630,1168564,0.0-629.0,cf1111e0-cdb2-4166-a3c5-c52b2158a840,,1500,250,stim,,"<div class = centerbox><div class = stroop-stim style = ""color:blue"">BLUE</div></div>","66,71,82",1500,test,,,congruent,TRUE,66,,,500,blue,blue,-1,-1,poldrack-single-stim,631,1169325,0.0-630.0,cf1111e0-cdb2-4166-a3c5-c52b2158a840,,500,500,fixation,,<div class = centerbox><div class = fixation>+</div></div>,none,500,test,,,,,,,,,,,593,82,poldrack-categorize,632,1171838,0.0-631.0,cf1111e0-cdb2-4166-a3c5-c52b2158a840,,1500,250,stim,,"<div class = centerbox><div class = stroop-stim style = ""color:red"">RED</div></div>","66,71,82",1500,test,,,congruent,TRUE,82,,,500,red,red,42829,,survey-text,633,1214924,0.0-633.0,cf1111e0-cdb2-4166-a3c5-c52b2158a840,,,,post task questions,,,,,,,,,,,"{""Q0"":""identify the color of the ink of the words with R for red, B for Blue, G for Green."",""Q1"":""""}",,,,,2447,13,poldrack-text,634,1218373,0.0-634.0,cf1111e0-cdb2-4166-a3c5-c52b2158a840,<div class = centerbox><p class = center-block-text>Thanks for completing this task!</p><p class = center-block-text>Press <strong>enter</strong> to continue.</p></div>,2447,0,end,,,,,,,,,,,,stroop,,,,TRUE106387,13,text,635,1324801,0.0-635.0,cf1111e0-cdb2-4166-a3c5-c52b2158a840,,,,,,,,,,,,,,,,,,,,