rt,key_press,trial_type,trial_index,time_elapsed,internal_node_id,subject,text,block_duration,timing_post_trial,trial_id,view_history,stimulus,possible_responses,stim_duration,exp_stage,correct,correct_response,feedback_duration,condition,stim_color,stim_word,responses,exp_id,credit_var,stim_place,stim_id2426,13,text,0,2428,0.0-0.0,5327eeec-1f91-4a55-bff6-0a596276db6b,,,,,,,,,,,,,,,,,,,,15198,13,poldrack-text,1,18634,0.0-1.0-0.0,5327eeec-1f91-4a55-bff6-0a596276db6b,<div class = centerbox><p class = center-block-text>Welcome to the experiment. This experiment will take about 8 minutes. Press <strong>enter</strong> to begin.</p></div>,15198,0,instruction,,,,,,,,,,,,,,,,41941,,poldrack-instructions,2,60576,0.0-1.0-1.0,5327eeec-1f91-4a55-bff6-0a596276db6b,,,,instruction,"[{""page_index"":0,""viewing_time"":41940}]",,,,,,,,,,,,,,,3746,13,poldrack-text,3,65326,0.0-2.0,5327eeec-1f91-4a55-bff6-0a596276db6b,"<div class = centerbox><p class = block-text>We will start with a few practice trials. Remember, press the key corresponding to the <strong>ink</strong> color of the word: ""r"" for words colored red, ""b"" for words colored blue, and ""g"" for words colored green.</p><p class = block-text>Press <strong>enter</strong> to begin practice.</p></div>",3746,1000,practice_intro,,,,,,,,,,,,,,,,-1,-1,poldrack-single-stim,4,66834,0.0-3.0,5327eeec-1f91-4a55-bff6-0a596276db6b,,500,500,fixation,,<div class = centerbox><div class = fixation>+</div></div>,none,500,practice,,,,,,,,,,,902,82,poldrack-categorize,5,69346,0.0-4.0,5327eeec-1f91-4a55-bff6-0a596276db6b,,1500,250,stim,,"<div class = centerbox><div class = stroop-stim style = ""color:red"">BLUE</div></div>","66,71,82",1500,practice,TRUE,82,500,incongruent,red,blue,,,,,-1,-1,poldrack-single-stim,6,70107,0.0-5.0,5327eeec-1f91-4a55-bff6-0a596276db6b,,500,500,fixation,,<div class = centerbox><div class = fixation>+</div></div>,none,500,practice,,,,,,,,,,,1090,71,poldrack-categorize,7,72620,0.0-6.0,5327eeec-1f91-4a55-bff6-0a596276db6b,,1500,250,stim,,"<div class = centerbox><div class = stroop-stim style = ""color:green"">BLUE</div></div>","66,71,82",1500,practice,TRUE,71,500,incongruent,green,blue,,,,,-1,-1,poldrack-single-stim,8,73380,0.0-7.0,5327eeec-1f91-4a55-bff6-0a596276db6b,,500,500,fixation,,<div class = centerbox><div class = fixation>+</div></div>,none,500,practice,,,,,,,,,,,776,66,poldrack-categorize,9,75894,0.0-8.0,5327eeec-1f91-4a55-bff6-0a596276db6b,,1500,250,stim,,"<div class = centerbox><div class = stroop-stim style = ""color:blue"">GREEN</div></div>","66,71,82",1500,practice,TRUE,66,500,incongruent,blue,green,,,,,-1,-1,poldrack-single-stim,10,76654,0.0-9.0,5327eeec-1f91-4a55-bff6-0a596276db6b,,500,500,fixation,,<div class = centerbox><div class = fixation>+</div></div>,none,500,practice,,,,,,,,,,,423,82,poldrack-categorize,11,79167,0.0-10.0,5327eeec-1f91-4a55-bff6-0a596276db6b,,1500,250,stim,,"<div class = centerbox><div class = stroop-stim style = ""color:red"">RED</div></div>","66,71,82",1500,practice,TRUE,82,500,congruent,red,red,,,,,-1,-1,poldrack-single-stim,12,79928,0.0-11.0,5327eeec-1f91-4a55-bff6-0a596276db6b,,500,500,fixation,,<div class = centerbox><div class = fixation>+</div></div>,none,500,practice,,,,,,,,,,,748,82,poldrack-categorize,13,82441,0.0-12.0,5327eeec-1f91-4a55-bff6-0a596276db6b,,1500,250,stim,,"<div class = centerbox><div class = stroop-stim style = ""color:red"">RED</div></div>","66,71,82",1500,practice,TRUE,82,500,congruent,red,red,,,,,-1,-1,poldrack-single-stim,14,83202,0.0-13.0,5327eeec-1f91-4a55-bff6-0a596276db6b,,500,500,fixation,,<div class = centerbox><div class = fixation>+</div></div>,none,500,practice,,,,,,,,,,,522,71,poldrack-categorize,15,85715,0.0-14.0,5327eeec-1f91-4a55-bff6-0a596276db6b,,1500,250,stim,,"<div class = centerbox><div class = stroop-stim style = ""color:green"">GREEN</div></div>","66,71,82",1500,practice,TRUE,71,500,congruent,green,green,,,,,-1,-1,poldrack-single-stim,16,86476,0.0-15.0,5327eeec-1f91-4a55-bff6-0a596276db6b,,500,500,fixation,,<div class = centerbox><div class = fixation>+</div></div>,none,500,practice,,,,,,,,,,,696,71,poldrack-categorize,17,88989,0.0-16.0,5327eeec-1f91-4a55-bff6-0a596276db6b,,1500,250,stim,,"<div class = centerbox><div class = stroop-stim style = ""color:green"">GREEN</div></div>","66,71,82",1500,practice,TRUE,71,500,congruent,green,green,,,,,-1,-1,poldrack-single-stim,18,89749,0.0-17.0,5327eeec-1f91-4a55-bff6-0a596276db6b,,500,500,fixation,,<div class = centerbox><div class = fixation>+</div></div>,none,500,practice,,,,,,,,,,,502,71,poldrack-categorize,19,92263,0.0-18.0,5327eeec-1f91-4a55-bff6-0a596276db6b,,1500,250,stim,,"<div class = centerbox><div class = stroop-stim style = ""color:green"">BLUE</div></div>","66,71,82",1500,practice,TRUE,71,500,incongruent,green,blue,,,,,-1,-1,poldrack-single-stim,20,93018,0.0-19.0,5327eeec-1f91-4a55-bff6-0a596276db6b,,500,500,fixation,,<div class = centerbox><div class = fixation>+</div></div>,none,500,practice,,,,,,,,,,,826,66,poldrack-categorize,21,95531,0.0-20.0,5327eeec-1f91-4a55-bff6-0a596276db6b,,1500,250,stim,,"<div class = centerbox><div class = stroop-stim style = ""color:blue"">RED</div></div>","66,71,82",1500,practice,TRUE,66,500,incongruent,blue,red,,,,,-1,-1,poldrack-single-stim,22,96291,0.0-21.0,5327eeec-1f91-4a55-bff6-0a596276db6b,,500,500,fixation,,<div class = centerbox><div class = fixation>+</div></div>,none,500,practice,,,,,,,,,,,592,71,poldrack-categorize,23,98805,0.0-22.0,5327eeec-1f91-4a55-bff6-0a596276db6b,,1500,250,stim,,"<div class = centerbox><div class = stroop-stim style = ""color:green"">GREEN</div></div>","66,71,82",1500,practice,TRUE,71,500,congruent,green,green,,,,,-1,-1,poldrack-single-stim,24,99565,0.0-23.0,5327eeec-1f91-4a55-bff6-0a596276db6b,,500,500,fixation,,<div class = centerbox><div class = fixation>+</div></div>,none,500,practice,,,,,,,,,,,645,82,poldrack-categorize,25,102078,0.0-24.0,5327eeec-1f91-4a55-bff6-0a596276db6b,,1500,250,stim,,"<div class = centerbox><div class = stroop-stim style = ""color:red"">GREEN</div></div>","66,71,82",1500,practice,TRUE,82,500,incongruent,red,green,,,,,-1,-1,poldrack-single-stim,26,102833,0.0-25.0,5327eeec-1f91-4a55-bff6-0a596276db6b,,500,500,fixation,,<div class = centerbox><div class = fixation>+</div></div>,none,500,practice,,,,,,,,,,,714,66,poldrack-categorize,27,105346,0.0-26.0,5327eeec-1f91-4a55-bff6-0a596276db6b,,1500,250,stim,,"<div class = centerbox><div class = stroop-stim style = ""color:blue"">GREEN</div></div>","66,71,82",1500,practice,TRUE,66,500,incongruent,blue,green,,,,,-1,-1,poldrack-single-stim,28,106107,0.0-27.0,5327eeec-1f91-4a55-bff6-0a596276db6b,,500,500,fixation,,<div class = centerbox><div class = fixation>+</div></div>,none,500,practice,,,,,,,,,,,520,66,poldrack-categorize,29,108620,0.0-28.0,5327eeec-1f91-4a55-bff6-0a596276db6b,,1500,250,stim,,"<div class = centerbox><div class = stroop-stim style = ""color:blue"">BLUE</div></div>","66,71,82",1500,practice,TRUE,66,500,congruent,blue,blue,,,,,-1,-1,poldrack-single-stim,30,109381,0.0-29.0,5327eeec-1f91-4a55-bff6-0a596276db6b,,500,500,fixation,,<div class = centerbox><div class = fixation>+</div></div>,none,500,practice,,,,,,,,,,,470,82,poldrack-categorize,31,111894,0.0-30.0,5327eeec-1f91-4a55-bff6-0a596276db6b,,1500,250,stim,,"<div class = centerbox><div class = stroop-stim style = ""color:red"">BLUE</div></div>","66,71,82",1500,practice,TRUE,82,500,incongruent,red,blue,,,,,-1,-1,poldrack-single-stim,32,112649,0.0-31.0,5327eeec-1f91-4a55-bff6-0a596276db6b,,500,500,fixation,,<div class = centerbox><div class = fixation>+</div></div>,none,500,practice,,,,,,,,,,,649,71,poldrack-categorize,33,115162,0.0-32.0,5327eeec-1f91-4a55-bff6-0a596276db6b,,1500,250,stim,,"<div class = centerbox><div class = stroop-stim style = ""color:green"">RED</div></div>","66,71,82",1500,practice,TRUE,71,500,incongruent,green,red,,,,,-1,-1,poldrack-single-stim,34,115917,0.0-33.0,5327eeec-1f91-4a55-bff6-0a596276db6b,,500,500,fixation,,<div class = centerbox><div class = fixation>+</div></div>,none,500,practice,,,,,,,,,,,869,82,poldrack-categorize,35,118430,0.0-34.0,5327eeec-1f91-4a55-bff6-0a596276db6b,,1500,250,stim,,"<div class = centerbox><div class = stroop-stim style = ""color:red"">RED</div></div>","66,71,82",1500,practice,TRUE,82,500,congruent,red,red,,,,,-1,-1,poldrack-single-stim,36,119191,0.0-35.0,5327eeec-1f91-4a55-bff6-0a596276db6b,,500,500,fixation,,<div class = centerbox><div class = fixation>+</div></div>,none,500,practice,,,,,,,,,,,643,66,poldrack-categorize,37,121704,0.0-36.0,5327eeec-1f91-4a55-bff6-0a596276db6b,,1500,250,stim,,"<div class = centerbox><div class = stroop-stim style = ""color:blue"">BLUE</div></div>","66,71,82",1500,practice,TRUE,66,500,congruent,blue,blue,,,,,-1,-1,poldrack-single-stim,38,122464,0.0-37.0,5327eeec-1f91-4a55-bff6-0a596276db6b,,500,500,fixation,,<div class = centerbox><div class = fixation>+</div></div>,none,500,practice,,,,,,,,,,,649,71,poldrack-categorize,39,124977,0.0-38.0,5327eeec-1f91-4a55-bff6-0a596276db6b,,1500,250,stim,,"<div class = centerbox><div class = stroop-stim style = ""color:green"">RED</div></div>","66,71,82",1500,practice,TRUE,71,500,incongruent,green,red,,,,,-1,-1,poldrack-single-stim,40,125738,0.0-39.0,5327eeec-1f91-4a55-bff6-0a596276db6b,,500,500,fixation,,<div class = centerbox><div class = fixation>+</div></div>,none,500,practice,,,,,,,,,,,679,82,poldrack-categorize,41,128251,0.0-40.0,5327eeec-1f91-4a55-bff6-0a596276db6b,,1500,250,stim,,"<div class = centerbox><div class = stroop-stim style = ""color:red"">GREEN</div></div>","66,71,82",1500,practice,TRUE,82,500,incongruent,red,green,,,,,-1,-1,poldrack-single-stim,42,129012,0.0-41.0,5327eeec-1f91-4a55-bff6-0a596276db6b,,500,500,fixation,,<div class = centerbox><div class = fixation>+</div></div>,none,500,practice,,,,,,,,,,,349,66,poldrack-categorize,43,131525,0.0-42.0,5327eeec-1f91-4a55-bff6-0a596276db6b,,1500,250,stim,,"<div class = centerbox><div class = stroop-stim style = ""color:blue"">BLUE</div></div>","66,71,82",1500,practice,TRUE,66,500,congruent,blue,blue,,,,,-1,-1,poldrack-single-stim,44,132280,0.0-43.0,5327eeec-1f91-4a55-bff6-0a596276db6b,,500,500,fixation,,<div class = centerbox><div class = fixation>+</div></div>,none,500,practice,,,,,,,,,,,377,71,poldrack-categorize,45,134793,0.0-44.0,5327eeec-1f91-4a55-bff6-0a596276db6b,,1500,250,stim,,"<div class = centerbox><div class = stroop-stim style = ""color:green"">GREEN</div></div>","66,71,82",1500,practice,TRUE,71,500,congruent,green,green,,,,,-1,-1,poldrack-single-stim,46,135551,0.0-45.0,5327eeec-1f91-4a55-bff6-0a596276db6b,,500,500,fixation,,<div class = centerbox><div class = fixation>+</div></div>,none,500,practice,,,,,,,,,,,476,66,poldrack-categorize,47,138061,0.0-46.0,5327eeec-1f91-4a55-bff6-0a596276db6b,,1500,250,stim,,"<div class = centerbox><div class = stroop-stim style = ""color:blue"">BLUE</div></div>","66,71,82",1500,practice,TRUE,66,500,congruent,blue,blue,,,,,-1,-1,poldrack-single-stim,48,138822,0.0-47.0,5327eeec-1f91-4a55-bff6-0a596276db6b,,500,500,fixation,,<div class = centerbox><div class = fixation>+</div></div>,none,500,practice,,,,,,,,,,,530,82,poldrack-categorize,49,141334,0.0-48.0,5327eeec-1f91-4a55-bff6-0a596276db6b,,1500,250,stim,,"<div class = centerbox><div class = stroop-stim style = ""color:blue"">RED</div></div>","66,71,82",1500,practice,FALSE,66,500,incongruent,blue,red,,,,,-1,-1,poldrack-single-stim,50,142090,0.0-49.0,5327eeec-1f91-4a55-bff6-0a596276db6b,,500,500,fixation,,<div class = centerbox><div class = fixation>+</div></div>,none,500,practice,,,,,,,,,,,606,82,poldrack-categorize,51,144597,0.0-50.0,5327eeec-1f91-4a55-bff6-0a596276db6b,,1500,250,stim,,"<div class = centerbox><div class = stroop-stim style = ""color:red"">RED</div></div>","66,71,82",1500,practice,TRUE,82,500,congruent,red,red,,,,,3532,13,poldrack-text,52,148385,0.0-52.0,5327eeec-1f91-4a55-bff6-0a596276db6b,<div class = centerbox><p class = center-block-text>We will now start the test. Respond exactly like you did during practice.</p><p class = center-block-text>Press <strong>enter</strong> to begin the test.</p></div>,3532,1000,test_intro,,,,,,,,,,,,,,,,-1,-1,poldrack-single-stim,53,149891,0.0-53.0,5327eeec-1f91-4a55-bff6-0a596276db6b,,500,500,fixation,,<div class = centerbox><div class = fixation>+</div></div>,none,500,test,,,,,,,,,,,687,82,poldrack-categorize,54,152399,0.0-54.0,5327eeec-1f91-4a55-bff6-0a596276db6b,,1500,250,stim,,"<div class = centerbox><div class = stroop-stim style = ""color:red"">GREEN</div></div>","66,71,82",1500,test,TRUE,82,500,incongruent,red,green,,,,,-1,-1,poldrack-single-stim,55,153155,0.0-55.0,5327eeec-1f91-4a55-bff6-0a596276db6b,,500,500,fixation,,<div class = centerbox><div class = fixation>+</div></div>,none,500,test,,,,,,,,,,,647,71,poldrack-categorize,56,155667,0.0-56.0,5327eeec-1f91-4a55-bff6-0a596276db6b,,1500,250,stim,,"<div class = centerbox><div class = stroop-stim style = ""color:green"">RED</div></div>","66,71,82",1500,test,TRUE,71,500,incongruent,green,red,,,,,-1,-1,poldrack-single-stim,57,156427,0.0-57.0,5327eeec-1f91-4a55-bff6-0a596276db6b,,500,500,fixation,,<div class = centerbox><div class = fixation>+</div></div>,none,500,test,,,,,,,,,,,492,71,poldrack-categorize,58,158941,0.0-58.0,5327eeec-1f91-4a55-bff6-0a596276db6b,,1500,250,stim,,"<div class = centerbox><div class = stroop-stim style = ""color:green"">RED</div></div>","66,71,82",1500,test,TRUE,71,500,incongruent,green,red,,,,,-1,-1,poldrack-single-stim,59,159701,0.0-59.0,5327eeec-1f91-4a55-bff6-0a596276db6b,,500,500,fixation,,<div class = centerbox><div class = fixation>+</div></div>,none,500,test,,,,,,,,,,,810,82,poldrack-categorize,60,162214,0.0-60.0,5327eeec-1f91-4a55-bff6-0a596276db6b,,1500,250,stim,,"<div class = centerbox><div class = stroop-stim style = ""color:red"">GREEN</div></div>","66,71,82",1500,test,TRUE,82,500,incongruent,red,green,,,,,-1,-1,poldrack-single-stim,61,162975,0.0-61.0,5327eeec-1f91-4a55-bff6-0a596276db6b,,500,500,fixation,,<div class = centerbox><div class = fixation>+</div></div>,none,500,test,,,,,,,,,,,575,66,poldrack-categorize,62,165488,0.0-62.0,5327eeec-1f91-4a55-bff6-0a596276db6b,,1500,250,stim,,"<div class = centerbox><div class = stroop-stim style = ""color:green"">RED</div></div>","66,71,82",1500,test,FALSE,71,500,incongruent,green,red,,,,,-1,-1,poldrack-single-stim,63,166249,0.0-63.0,5327eeec-1f91-4a55-bff6-0a596276db6b,,500,500,fixation,,<div class = centerbox><div class = fixation>+</div></div>,none,500,test,,,,,,,,,,,462,71,poldrack-categorize,64,168756,0.0-64.0,5327eeec-1f91-4a55-bff6-0a596276db6b,,1500,250,stim,,"<div class = centerbox><div class = stroop-stim style = ""color:green"">RED</div></div>","66,71,82",1500,test,TRUE,71,500,incongruent,green,red,,,,,-1,-1,poldrack-single-stim,65,169517,0.0-65.0,5327eeec-1f91-4a55-bff6-0a596276db6b,,500,500,fixation,,<div class = centerbox><div class = fixation>+</div></div>,none,500,test,,,,,,,,,,,841,66,poldrack-categorize,66,172030,0.0-66.0,5327eeec-1f91-4a55-bff6-0a596276db6b,,1500,250,stim,,"<div class = centerbox><div class = stroop-stim style = ""color:blue"">RED</div></div>","66,71,82",1500,test,TRUE,66,500,incongruent,blue,red,,,,,-1,-1,poldrack-single-stim,67,172791,0.0-67.0,5327eeec-1f91-4a55-bff6-0a596276db6b,,500,500,fixation,,<div class = centerbox><div class = fixation>+</div></div>,none,500,test,,,,,,,,,,,487,82,poldrack-categorize,68,175304,0.0-68.0,5327eeec-1f91-4a55-bff6-0a596276db6b,,1500,250,stim,,"<div class = centerbox><div class = stroop-stim style = ""color:red"">RED</div></div>","66,71,82",1500,test,TRUE,82,500,congruent,red,red,,,,,-1,-1,poldrack-single-stim,69,176065,0.0-69.0,5327eeec-1f91-4a55-bff6-0a596276db6b,,500,500,fixation,,<div class = centerbox><div class = fixation>+</div></div>,none,500,test,,,,,,,,,,,558,82,poldrack-categorize,70,178578,0.0-70.0,5327eeec-1f91-4a55-bff6-0a596276db6b,,1500,250,stim,,"<div class = centerbox><div class = stroop-stim style = ""color:red"">BLUE</div></div>","66,71,82",1500,test,TRUE,82,500,incongruent,red,blue,,,,,-1,-1,poldrack-single-stim,71,179338,0.0-71.0,5327eeec-1f91-4a55-bff6-0a596276db6b,,500,500,fixation,,<div class = centerbox><div class = fixation>+</div></div>,none,500,test,,,,,,,,,,,852,71,poldrack-categorize,72,181852,0.0-72.0,5327eeec-1f91-4a55-bff6-0a596276db6b,,1500,250,stim,,"<div class = centerbox><div class = stroop-stim style = ""color:green"">GREEN</div></div>","66,71,82",1500,test,TRUE,71,500,congruent,green,green,,,,,-1,-1,poldrack-single-stim,73,182612,0.0-73.0,5327eeec-1f91-4a55-bff6-0a596276db6b,,500,500,fixation,,<div class = centerbox><div class = fixation>+</div></div>,none,500,test,,,,,,,,,,,561,66,poldrack-categorize,74,185125,0.0-74.0,5327eeec-1f91-4a55-bff6-0a596276db6b,,1500,250,stim,,"<div class = centerbox><div class = stroop-stim style = ""color:blue"">BLUE</div></div>","66,71,82",1500,test,TRUE,66,500,congruent,blue,blue,,,,,-1,-1,poldrack-single-stim,75,185886,0.0-75.0,5327eeec-1f91-4a55-bff6-0a596276db6b,,500,500,fixation,,<div class = centerbox><div class = fixation>+</div></div>,none,500,test,,,,,,,,,,,551,71,poldrack-categorize,76,188399,0.0-76.0,5327eeec-1f91-4a55-bff6-0a596276db6b,,1500,250,stim,,"<div class = centerbox><div class = stroop-stim style = ""color:green"">GREEN</div></div>","66,71,82",1500,test,TRUE,71,500,congruent,green,green,,,,,-1,-1,poldrack-single-stim,77,189160,0.0-77.0,5327eeec-1f91-4a55-bff6-0a596276db6b,,500,500,fixation,,<div class = centerbox><div class = fixation>+</div></div>,none,500,test,,,,,,,,,,,565,82,poldrack-categorize,78,191670,0.0-78.0,5327eeec-1f91-4a55-bff6-0a596276db6b,,1500,250,stim,,"<div class = centerbox><div class = stroop-stim style = ""color:red"">BLUE</div></div>","66,71,82",1500,test,TRUE,82,500,incongruent,red,blue,,,,,-1,-1,poldrack-single-stim,79,192428,0.0-79.0,5327eeec-1f91-4a55-bff6-0a596276db6b,,500,500,fixation,,<div class = centerbox><div class = fixation>+</div></div>,none,500,test,,,,,,,,,,,489,82,poldrack-categorize,80,194941,0.0-80.0,5327eeec-1f91-4a55-bff6-0a596276db6b,,1500,250,stim,,"<div class = centerbox><div class = stroop-stim style = ""color:red"">RED</div></div>","66,71,82",1500,test,TRUE,82,500,congruent,red,red,,,,,-1,-1,poldrack-single-stim,81,195702,0.0-81.0,5327eeec-1f91-4a55-bff6-0a596276db6b,,500,500,fixation,,<div class = centerbox><div class = fixation>+</div></div>,none,500,test,,,,,,,,,,,555,71,poldrack-categorize,82,198209,0.0-82.0,5327eeec-1f91-4a55-bff6-0a596276db6b,,1500,250,stim,,"<div class = centerbox><div class = stroop-stim style = ""color:green"">GREEN</div></div>","66,71,82",1500,test,TRUE,71,500,congruent,green,green,,,,,-1,-1,poldrack-single-stim,83,198970,0.0-83.0,5327eeec-1f91-4a55-bff6-0a596276db6b,,500,500,fixation,,<div class = centerbox><div class = fixation>+</div></div>,none,500,test,,,,,,,,,,,468,71,poldrack-categorize,84,201483,0.0-84.0,5327eeec-1f91-4a55-bff6-0a596276db6b,,1500,250,stim,,"<div class = centerbox><div class = stroop-stim style = ""color:green"">BLUE</div></div>","66,71,82",1500,test,TRUE,71,500,incongruent,green,blue,,,,,-1,-1,poldrack-single-stim,85,202243,0.0-85.0,5327eeec-1f91-4a55-bff6-0a596276db6b,,500,500,fixation,,<div class = centerbox><div class = fixation>+</div></div>,none,500,test,,,,,,,,,,,569,66,poldrack-categorize,86,204757,0.0-86.0,5327eeec-1f91-4a55-bff6-0a596276db6b,,1500,250,stim,,"<div class = centerbox><div class = stroop-stim style = ""color:blue"">BLUE</div></div>","66,71,82",1500,test,TRUE,66,500,congruent,blue,blue,,,,,-1,-1,poldrack-single-stim,87,205517,0.0-87.0,5327eeec-1f91-4a55-bff6-0a596276db6b,,500,500,fixation,,<div class = centerbox><div class = fixation>+</div></div>,none,500,test,,,,,,,,,,,711,66,poldrack-categorize,88,208033,0.0-88.0,5327eeec-1f91-4a55-bff6-0a596276db6b,,1500,250,stim,,"<div class = centerbox><div class = stroop-stim style = ""color:blue"">GREEN</div></div>","66,71,82",1500,test,TRUE,66,500,incongruent,blue,green,,,,,-1,-1,poldrack-single-stim,89,208789,0.0-89.0,5327eeec-1f91-4a55-bff6-0a596276db6b,,500,500,fixation,,<div class = centerbox><div class = fixation>+</div></div>,none,500,test,,,,,,,,,,,531,82,poldrack-categorize,90,211299,0.0-90.0,5327eeec-1f91-4a55-bff6-0a596276db6b,,1500,250,stim,,"<div class = centerbox><div class = stroop-stim style = ""color:red"">RED</div></div>","66,71,82",1500,test,TRUE,82,500,congruent,red,red,,,,,-1,-1,poldrack-single-stim,91,212059,0.0-91.0,5327eeec-1f91-4a55-bff6-0a596276db6b,,500,500,fixation,,<div class = centerbox><div class = fixation>+</div></div>,none,500,test,,,,,,,,,,,489,71,poldrack-categorize,92,214572,0.0-92.0,5327eeec-1f91-4a55-bff6-0a596276db6b,,1500,250,stim,,"<div class = centerbox><div class = stroop-stim style = ""color:green"">GREEN</div></div>","66,71,82",1500,test,TRUE,71,500,congruent,green,green,,,,,-1,-1,poldrack-single-stim,93,215333,0.0-93.0,5327eeec-1f91-4a55-bff6-0a596276db6b,,500,500,fixation,,<div class = centerbox><div class = fixation>+</div></div>,none,500,test,,,,,,,,,,,558,82,poldrack-categorize,94,217846,0.0-94.0,5327eeec-1f91-4a55-bff6-0a596276db6b,,1500,250,stim,,"<div class = centerbox><div class = stroop-stim style = ""color:red"">RED</div></div>","66,71,82",1500,test,TRUE,82,500,congruent,red,red,,,,,-1,-1,poldrack-single-stim,95,218605,0.0-95.0,5327eeec-1f91-4a55-bff6-0a596276db6b,,500,500,fixation,,<div class = centerbox><div class = fixation>+</div></div>,none,500,test,,,,,,,,,,,878,82,poldrack-categorize,96,221120,0.0-96.0,5327eeec-1f91-4a55-bff6-0a596276db6b,,1500,250,stim,,"<div class = centerbox><div class = stroop-stim style = ""color:red"">GREEN</div></div>","66,71,82",1500,test,TRUE,82,500,incongruent,red,green,,,,,-1,-1,poldrack-single-stim,97,221876,0.0-97.0,5327eeec-1f91-4a55-bff6-0a596276db6b,,500,500,fixation,,<div class = centerbox><div class = fixation>+</div></div>,none,500,test,,,,,,,,,,,-1,-1,poldrack-categorize,98,224388,0.0-98.0,5327eeec-1f91-4a55-bff6-0a596276db6b,,1500,250,stim,,"<div class = centerbox><div class = stroop-stim style = ""color:blue"">BLUE</div></div>","66,71,82",1500,test,FALSE,66,500,congruent,blue,blue,,,,,-1,-1,poldrack-single-stim,99,225149,0.0-99.0,5327eeec-1f91-4a55-bff6-0a596276db6b,,500,500,fixation,,<div class = centerbox><div class = fixation>+</div></div>,none,500,test,,,,,,,,,,,535,82,poldrack-categorize,100,227662,0.0-100.0,5327eeec-1f91-4a55-bff6-0a596276db6b,,1500,250,stim,,"<div class = centerbox><div class = stroop-stim style = ""color:red"">BLUE</div></div>","66,71,82",1500,test,TRUE,82,500,incongruent,red,blue,,,,,-1,-1,poldrack-single-stim,101,228422,0.0-101.0,5327eeec-1f91-4a55-bff6-0a596276db6b,,500,500,fixation,,<div class = centerbox><div class = fixation>+</div></div>,none,500,test,,,,,,,,,,,501,82,poldrack-categorize,102,230936,0.0-102.0,5327eeec-1f91-4a55-bff6-0a596276db6b,,1500,250,stim,,"<div class = centerbox><div class = stroop-stim style = ""color:red"">RED</div></div>","66,71,82",1500,test,TRUE,82,500,congruent,red,red,,,,,-1,-1,poldrack-single-stim,103,231696,0.0-103.0,5327eeec-1f91-4a55-bff6-0a596276db6b,,500,500,fixation,,<div class = centerbox><div class = fixation>+</div></div>,none,500,test,,,,,,,,,,,475,82,poldrack-categorize,104,234209,0.0-104.0,5327eeec-1f91-4a55-bff6-0a596276db6b,,1500,250,stim,,"<div class = centerbox><div class = stroop-stim style = ""color:red"">BLUE</div></div>","66,71,82",1500,test,TRUE,82,500,incongruent,red,blue,,,,,-1,-1,poldrack-single-stim,105,234970,0.0-105.0,5327eeec-1f91-4a55-bff6-0a596276db6b,,500,500,fixation,,<div class = centerbox><div class = fixation>+</div></div>,none,500,test,,,,,,,,,,,529,71,poldrack-categorize,106,237483,0.0-106.0,5327eeec-1f91-4a55-bff6-0a596276db6b,,1500,250,stim,,"<div class = centerbox><div class = stroop-stim style = ""color:green"">RED</div></div>","66,71,82",1500,test,TRUE,71,500,incongruent,green,red,,,,,-1,-1,poldrack-single-stim,107,238244,0.0-107.0,5327eeec-1f91-4a55-bff6-0a596276db6b,,500,500,fixation,,<div class = centerbox><div class = fixation>+</div></div>,none,500,test,,,,,,,,,,,534,82,poldrack-categorize,108,240757,0.0-108.0,5327eeec-1f91-4a55-bff6-0a596276db6b,,1500,250,stim,,"<div class = centerbox><div class = stroop-stim style = ""color:red"">RED</div></div>","66,71,82",1500,test,TRUE,82,500,congruent,red,red,,,,,-1,-1,poldrack-single-stim,109,241518,0.0-109.0,5327eeec-1f91-4a55-bff6-0a596276db6b,,500,500,fixation,,<div class = centerbox><div class = fixation>+</div></div>,none,500,test,,,,,,,,,,,429,82,poldrack-categorize,110,244025,0.0-110.0,5327eeec-1f91-4a55-bff6-0a596276db6b,,1500,250,stim,,"<div class = centerbox><div class = stroop-stim style = ""color:red"">BLUE</div></div>","66,71,82",1500,test,TRUE,82,500,incongruent,red,blue,,,,,-1,-1,poldrack-single-stim,111,244786,0.0-111.0,5327eeec-1f91-4a55-bff6-0a596276db6b,,500,500,fixation,,<div class = centerbox><div class = fixation>+</div></div>,none,500,test,,,,,,,,,,,833,71,poldrack-categorize,112,247295,0.0-112.0,5327eeec-1f91-4a55-bff6-0a596276db6b,,1500,250,stim,,"<div class = centerbox><div class = stroop-stim style = ""color:green"">BLUE</div></div>","66,71,82",1500,test,TRUE,71,500,incongruent,green,blue,,,,,-1,-1,poldrack-single-stim,113,248054,0.0-113.0,5327eeec-1f91-4a55-bff6-0a596276db6b,,500,500,fixation,,<div class = centerbox><div class = fixation>+</div></div>,none,500,test,,,,,,,,,,,628,66,poldrack-categorize,114,250567,0.0-114.0,5327eeec-1f91-4a55-bff6-0a596276db6b,,1500,250,stim,,"<div class = centerbox><div class = stroop-stim style = ""color:blue"">RED</div></div>","66,71,82",1500,test,TRUE,66,500,incongruent,blue,red,,,,,-1,-1,poldrack-single-stim,115,251327,0.0-115.0,5327eeec-1f91-4a55-bff6-0a596276db6b,,500,500,fixation,,<div class = centerbox><div class = fixation>+</div></div>,none,500,test,,,,,,,,,,,570,71,poldrack-categorize,116,253841,0.0-116.0,5327eeec-1f91-4a55-bff6-0a596276db6b,,1500,250,stim,,"<div class = centerbox><div class = stroop-stim style = ""color:green"">BLUE</div></div>","66,71,82",1500,test,TRUE,71,500,incongruent,green,blue,,,,,-1,-1,poldrack-single-stim,117,254599,0.0-117.0,5327eeec-1f91-4a55-bff6-0a596276db6b,,500,500,fixation,,<div class = centerbox><div class = fixation>+</div></div>,none,500,test,,,,,,,,,,,622,71,poldrack-categorize,118,257109,0.0-118.0,5327eeec-1f91-4a55-bff6-0a596276db6b,,1500,250,stim,,"<div class = centerbox><div class = stroop-stim style = ""color:green"">GREEN</div></div>","66,71,82",1500,test,TRUE,71,500,congruent,green,green,,,,,-1,-1,poldrack-single-stim,119,257869,0.0-119.0,5327eeec-1f91-4a55-bff6-0a596276db6b,,500,500,fixation,,<div class = centerbox><div class = fixation>+</div></div>,none,500,test,,,,,,,,,,,525,82,poldrack-categorize,120,260383,0.0-120.0,5327eeec-1f91-4a55-bff6-0a596276db6b,,1500,250,stim,,"<div class = centerbox><div class = stroop-stim style = ""color:red"">RED</div></div>","66,71,82",1500,test,TRUE,82,500,congruent,red,red,,,,,-1,-1,poldrack-single-stim,121,261137,0.0-121.0,5327eeec-1f91-4a55-bff6-0a596276db6b,,500,500,fixation,,<div class = centerbox><div class = fixation>+</div></div>,none,500,test,,,,,,,,,,,418,82,poldrack-categorize,122,263651,0.0-122.0,5327eeec-1f91-4a55-bff6-0a596276db6b,,1500,250,stim,,"<div class = centerbox><div class = stroop-stim style = ""color:red"">BLUE</div></div>","66,71,82",1500,test,TRUE,82,500,incongruent,red,blue,,,,,-1,-1,poldrack-single-stim,123,264411,0.0-123.0,5327eeec-1f91-4a55-bff6-0a596276db6b,,500,500,fixation,,<div class = centerbox><div class = fixation>+</div></div>,none,500,test,,,,,,,,,,,934,66,poldrack-categorize,124,266924,0.0-124.0,5327eeec-1f91-4a55-bff6-0a596276db6b,,1500,250,stim,,"<div class = centerbox><div class = stroop-stim style = ""color:blue"">RED</div></div>","66,71,82",1500,test,TRUE,66,500,incongruent,blue,red,,,,,-1,-1,poldrack-single-stim,125,267685,0.0-125.0,5327eeec-1f91-4a55-bff6-0a596276db6b,,500,500,fixation,,<div class = centerbox><div class = fixation>+</div></div>,none,500,test,,,,,,,,,,,467,82,poldrack-categorize,126,270198,0.0-126.0,5327eeec-1f91-4a55-bff6-0a596276db6b,,1500,250,stim,,"<div class = centerbox><div class = stroop-stim style = ""color:red"">RED</div></div>","66,71,82",1500,test,TRUE,82,500,congruent,red,red,,,,,-1,-1,poldrack-single-stim,127,270958,0.0-127.0,5327eeec-1f91-4a55-bff6-0a596276db6b,,500,500,fixation,,<div class = centerbox><div class = fixation>+</div></div>,none,500,test,,,,,,,,,,,674,66,poldrack-categorize,128,273472,0.0-128.0,5327eeec-1f91-4a55-bff6-0a596276db6b,,1500,250,stim,,"<div class = centerbox><div class = stroop-stim style = ""color:blue"">GREEN</div></div>","66,71,82",1500,test,TRUE,66,500,incongruent,blue,green,,,,,-1,-1,poldrack-single-stim,129,274229,0.0-129.0,5327eeec-1f91-4a55-bff6-0a596276db6b,,500,500,fixation,,<div class = centerbox><div class = fixation>+</div></div>,none,500,test,,,,,,,,,,,589,82,poldrack-categorize,130,276737,0.0-130.0,5327eeec-1f91-4a55-bff6-0a596276db6b,,1500,250,stim,,"<div class = centerbox><div class = stroop-stim style = ""color:red"">RED</div></div>","66,71,82",1500,test,TRUE,82,500,congruent,red,red,,,,,-1,-1,poldrack-single-stim,131,277495,0.0-131.0,5327eeec-1f91-4a55-bff6-0a596276db6b,,500,500,fixation,,<div class = centerbox><div class = fixation>+</div></div>,none,500,test,,,,,,,,,,,737,66,poldrack-categorize,132,280008,0.0-132.0,5327eeec-1f91-4a55-bff6-0a596276db6b,,1500,250,stim,,"<div class = centerbox><div class = stroop-stim style = ""color:blue"">BLUE</div></div>","66,71,82",1500,test,TRUE,66,500,congruent,blue,blue,,,,,-1,-1,poldrack-single-stim,133,280769,0.0-133.0,5327eeec-1f91-4a55-bff6-0a596276db6b,,500,500,fixation,,<div class = centerbox><div class = fixation>+</div></div>,none,500,test,,,,,,,,,,,535,66,poldrack-categorize,134,283282,0.0-134.0,5327eeec-1f91-4a55-bff6-0a596276db6b,,1500,250,stim,,"<div class = centerbox><div class = stroop-stim style = ""color:blue"">BLUE</div></div>","66,71,82",1500,test,TRUE,66,500,congruent,blue,blue,,,,,-1,-1,poldrack-single-stim,135,284039,0.0-135.0,5327eeec-1f91-4a55-bff6-0a596276db6b,,500,500,fixation,,<div class = centerbox><div class = fixation>+</div></div>,none,500,test,,,,,,,,,,,650,66,poldrack-categorize,136,286550,0.0-136.0,5327eeec-1f91-4a55-bff6-0a596276db6b,,1500,250,stim,,"<div class = centerbox><div class = stroop-stim style = ""color:blue"">GREEN</div></div>","66,71,82",1500,test,TRUE,66,500,incongruent,blue,green,,,,,-1,-1,poldrack-single-stim,137,287310,0.0-137.0,5327eeec-1f91-4a55-bff6-0a596276db6b,,500,500,fixation,,<div class = centerbox><div class = fixation>+</div></div>,none,500,test,,,,,,,,,,,401,66,poldrack-categorize,138,289824,0.0-138.0,5327eeec-1f91-4a55-bff6-0a596276db6b,,1500,250,stim,,"<div class = centerbox><div class = stroop-stim style = ""color:blue"">BLUE</div></div>","66,71,82",1500,test,TRUE,66,500,congruent,blue,blue,,,,,-1,-1,poldrack-single-stim,139,290584,0.0-139.0,5327eeec-1f91-4a55-bff6-0a596276db6b,,500,500,fixation,,<div class = centerbox><div class = fixation>+</div></div>,none,500,test,,,,,,,,,,,359,66,poldrack-categorize,140,293097,0.0-140.0,5327eeec-1f91-4a55-bff6-0a596276db6b,,1500,250,stim,,"<div class = centerbox><div class = stroop-stim style = ""color:blue"">GREEN</div></div>","66,71,82",1500,test,TRUE,66,500,incongruent,blue,green,,,,,-1,-1,poldrack-single-stim,141,293858,0.0-141.0,5327eeec-1f91-4a55-bff6-0a596276db6b,,500,500,fixation,,<div class = centerbox><div class = fixation>+</div></div>,none,500,test,,,,,,,,,,,509,71,poldrack-categorize,142,296371,0.0-142.0,5327eeec-1f91-4a55-bff6-0a596276db6b,,1500,250,stim,,"<div class = centerbox><div class = stroop-stim style = ""color:green"">BLUE</div></div>","66,71,82",1500,test,TRUE,71,500,incongruent,green,blue,,,,,-1,-1,poldrack-single-stim,143,297132,0.0-143.0,5327eeec-1f91-4a55-bff6-0a596276db6b,,500,500,fixation,,<div class = centerbox><div class = fixation>+</div></div>,none,500,test,,,,,,,,,,,443,71,poldrack-categorize,144,299645,0.0-144.0,5327eeec-1f91-4a55-bff6-0a596276db6b,,1500,250,stim,,"<div class = centerbox><div class = stroop-stim style = ""color:green"">RED</div></div>","66,71,82",1500,test,TRUE,71,500,incongruent,green,red,,,,,-1,-1,poldrack-single-stim,145,300406,0.0-145.0,5327eeec-1f91-4a55-bff6-0a596276db6b,,500,500,fixation,,<div class = centerbox><div class = fixation>+</div></div>,none,500,test,,,,,,,,,,,697,66,poldrack-categorize,146,302919,0.0-146.0,5327eeec-1f91-4a55-bff6-0a596276db6b,,1500,250,stim,,"<div class = centerbox><div class = stroop-stim style = ""color:blue"">GREEN</div></div>","66,71,82",1500,test,TRUE,66,500,incongruent,blue,green,,,,,-1,-1,poldrack-single-stim,147,303680,0.0-147.0,5327eeec-1f91-4a55-bff6-0a596276db6b,,500,500,fixation,,<div class = centerbox><div class = fixation>+</div></div>,none,500,test,,,,,,,,,,,463,66,poldrack-categorize,148,306193,0.0-148.0,5327eeec-1f91-4a55-bff6-0a596276db6b,,1500,250,stim,,"<div class = centerbox><div class = stroop-stim style = ""color:blue"">BLUE</div></div>","66,71,82",1500,test,TRUE,66,500,congruent,blue,blue,,,,,-1,-1,poldrack-single-stim,149,306948,0.0-149.0,5327eeec-1f91-4a55-bff6-0a596276db6b,,500,500,fixation,,<div class = centerbox><div class = fixation>+</div></div>,none,500,test,,,,,,,,,,,596,71,poldrack-categorize,150,309461,0.0-150.0,5327eeec-1f91-4a55-bff6-0a596276db6b,,1500,250,stim,,"<div class = centerbox><div class = stroop-stim style = ""color:green"">BLUE</div></div>","66,71,82",1500,test,TRUE,71,500,incongruent,green,blue,,,,,-1,-1,poldrack-single-stim,151,310221,0.0-151.0,5327eeec-1f91-4a55-bff6-0a596276db6b,,500,500,fixation,,<div class = centerbox><div class = fixation>+</div></div>,none,500,test,,,,,,,,,,,497,71,poldrack-categorize,152,312735,0.0-152.0,5327eeec-1f91-4a55-bff6-0a596276db6b,,1500,250,stim,,"<div class = centerbox><div class = stroop-stim style = ""color:green"">GREEN</div></div>","66,71,82",1500,test,TRUE,71,500,congruent,green,green,,,,,-1,-1,poldrack-single-stim,153,313495,0.0-153.0,5327eeec-1f91-4a55-bff6-0a596276db6b,,500,500,fixation,,<div class = centerbox><div class = fixation>+</div></div>,none,500,test,,,,,,,,,,,407,71,poldrack-categorize,154,316008,0.0-154.0,5327eeec-1f91-4a55-bff6-0a596276db6b,,1500,250,stim,,"<div class = centerbox><div class = stroop-stim style = ""color:green"">BLUE</div></div>","66,71,82",1500,test,TRUE,71,500,incongruent,green,blue,,,,,-1,-1,poldrack-single-stim,155,316769,0.0-155.0,5327eeec-1f91-4a55-bff6-0a596276db6b,,500,500,fixation,,<div class = centerbox><div class = fixation>+</div></div>,none,500,test,,,,,,,,,,,644,66,poldrack-categorize,156,319282,0.0-156.0,5327eeec-1f91-4a55-bff6-0a596276db6b,,1500,250,stim,,"<div class = centerbox><div class = stroop-stim style = ""color:blue"">RED</div></div>","66,71,82",1500,test,TRUE,66,500,incongruent,blue,red,,,,,-1,-1,poldrack-single-stim,157,320041,0.0-157.0,5327eeec-1f91-4a55-bff6-0a596276db6b,,500,500,fixation,,<div class = centerbox><div class = fixation>+</div></div>,none,500,test,,,,,,,,,,,456,66,poldrack-categorize,158,322548,0.0-158.0,5327eeec-1f91-4a55-bff6-0a596276db6b,,1500,250,stim,,"<div class = centerbox><div class = stroop-stim style = ""color:blue"">RED</div></div>","66,71,82",1500,test,TRUE,66,500,incongruent,blue,red,,,,,-1,-1,poldrack-single-stim,159,323305,0.0-159.0,5327eeec-1f91-4a55-bff6-0a596276db6b,,500,500,fixation,,<div class = centerbox><div class = fixation>+</div></div>,none,500,test,,,,,,,,,,,411,82,poldrack-categorize,160,325818,0.0-160.0,5327eeec-1f91-4a55-bff6-0a596276db6b,,1500,250,stim,,"<div class = centerbox><div class = stroop-stim style = ""color:red"">RED</div></div>","66,71,82",1500,test,TRUE,82,500,congruent,red,red,,,,,-1,-1,poldrack-single-stim,161,326579,0.0-161.0,5327eeec-1f91-4a55-bff6-0a596276db6b,,500,500,fixation,,<div class = centerbox><div class = fixation>+</div></div>,none,500,test,,,,,,,,,,,618,71,poldrack-categorize,162,329092,0.0-162.0,5327eeec-1f91-4a55-bff6-0a596276db6b,,1500,250,stim,,"<div class = centerbox><div class = stroop-stim style = ""color:blue"">GREEN</div></div>","66,71,82",1500,test,FALSE,66,500,incongruent,blue,green,,,,,-1,-1,poldrack-single-stim,163,329853,0.0-163.0,5327eeec-1f91-4a55-bff6-0a596276db6b,,500,500,fixation,,<div class = centerbox><div class = fixation>+</div></div>,none,500,test,,,,,,,,,,,577,66,poldrack-categorize,164,332366,0.0-164.0,5327eeec-1f91-4a55-bff6-0a596276db6b,,1500,250,stim,,"<div class = centerbox><div class = stroop-stim style = ""color:blue"">BLUE</div></div>","66,71,82",1500,test,TRUE,66,500,congruent,blue,blue,,,,,-1,-1,poldrack-single-stim,165,333127,0.0-165.0,5327eeec-1f91-4a55-bff6-0a596276db6b,,500,500,fixation,,<div class = centerbox><div class = fixation>+</div></div>,none,500,test,,,,,,,,,,,767,82,poldrack-categorize,166,335640,0.0-166.0,5327eeec-1f91-4a55-bff6-0a596276db6b,,1500,250,stim,,"<div class = centerbox><div class = stroop-stim style = ""color:red"">GREEN</div></div>","66,71,82",1500,test,TRUE,82,500,incongruent,red,green,,,,,-1,-1,poldrack-single-stim,167,336400,0.0-167.0,5327eeec-1f91-4a55-bff6-0a596276db6b,,500,500,fixation,,<div class = centerbox><div class = fixation>+</div></div>,none,500,test,,,,,,,,,,,564,82,poldrack-categorize,168,338913,0.0-168.0,5327eeec-1f91-4a55-bff6-0a596276db6b,,1500,250,stim,,"<div class = centerbox><div class = stroop-stim style = ""color:red"">RED</div></div>","66,71,82",1500,test,TRUE,82,500,congruent,red,red,,,,,-1,-1,poldrack-single-stim,169,339674,0.0-169.0,5327eeec-1f91-4a55-bff6-0a596276db6b,,500,500,fixation,,<div class = centerbox><div class = fixation>+</div></div>,none,500,test,,,,,,,,,,,730,82,poldrack-categorize,170,342187,0.0-170.0,5327eeec-1f91-4a55-bff6-0a596276db6b,,1500,250,stim,,"<div class = centerbox><div class = stroop-stim style = ""color:red"">RED</div></div>","66,71,82",1500,test,TRUE,82,500,congruent,red,red,,,,,-1,-1,poldrack-single-stim,171,342942,0.0-171.0,5327eeec-1f91-4a55-bff6-0a596276db6b,,500,500,fixation,,<div class = centerbox><div class = fixation>+</div></div>,none,500,test,,,,,,,,,,,630,71,poldrack-categorize,172,345455,0.0-172.0,5327eeec-1f91-4a55-bff6-0a596276db6b,,1500,250,stim,,"<div class = centerbox><div class = stroop-stim style = ""color:green"">GREEN</div></div>","66,71,82",1500,test,TRUE,71,500,congruent,green,green,,,,,-1,-1,poldrack-single-stim,173,346216,0.0-173.0,5327eeec-1f91-4a55-bff6-0a596276db6b,,500,500,fixation,,<div class = centerbox><div class = fixation>+</div></div>,none,500,test,,,,,,,,,,,476,71,poldrack-categorize,174,348729,0.0-174.0,5327eeec-1f91-4a55-bff6-0a596276db6b,,1500,250,stim,,"<div class = centerbox><div class = stroop-stim style = ""color:green"">GREEN</div></div>","66,71,82",1500,test,TRUE,71,500,congruent,green,green,,,,,-1,-1,poldrack-single-stim,175,349490,0.0-175.0,5327eeec-1f91-4a55-bff6-0a596276db6b,,500,500,fixation,,<div class = centerbox><div class = fixation>+</div></div>,none,500,test,,,,,,,,,,,577,66,poldrack-categorize,176,352003,0.0-176.0,5327eeec-1f91-4a55-bff6-0a596276db6b,,1500,250,stim,,"<div class = centerbox><div class = stroop-stim style = ""color:blue"">BLUE</div></div>","66,71,82",1500,test,TRUE,66,500,congruent,blue,blue,,,,,-1,-1,poldrack-single-stim,177,352758,0.0-177.0,5327eeec-1f91-4a55-bff6-0a596276db6b,,500,500,fixation,,<div class = centerbox><div class = fixation>+</div></div>,none,500,test,,,,,,,,,,,517,66,poldrack-categorize,178,355271,0.0-178.0,5327eeec-1f91-4a55-bff6-0a596276db6b,,1500,250,stim,,"<div class = centerbox><div class = stroop-stim style = ""color:blue"">GREEN</div></div>","66,71,82",1500,test,TRUE,66,500,incongruent,blue,green,,,,,-1,-1,poldrack-single-stim,179,356032,0.0-179.0,5327eeec-1f91-4a55-bff6-0a596276db6b,,500,500,fixation,,<div class = centerbox><div class = fixation>+</div></div>,none,500,test,,,,,,,,,,,660,82,poldrack-categorize,180,358545,0.0-180.0,5327eeec-1f91-4a55-bff6-0a596276db6b,,1500,250,stim,,"<div class = centerbox><div class = stroop-stim style = ""color:red"">BLUE</div></div>","66,71,82",1500,test,TRUE,82,500,incongruent,red,blue,,,,,-1,-1,poldrack-single-stim,181,359305,0.0-181.0,5327eeec-1f91-4a55-bff6-0a596276db6b,,500,500,fixation,,<div class = centerbox><div class = fixation>+</div></div>,none,500,test,,,,,,,,,,,570,66,poldrack-categorize,182,361819,0.0-182.0,5327eeec-1f91-4a55-bff6-0a596276db6b,,1500,250,stim,,"<div class = centerbox><div class = stroop-stim style = ""color:blue"">BLUE</div></div>","66,71,82",1500,test,TRUE,66,500,congruent,blue,blue,,,,,-1,-1,poldrack-single-stim,183,362573,0.0-183.0,5327eeec-1f91-4a55-bff6-0a596276db6b,,500,500,fixation,,<div class = centerbox><div class = fixation>+</div></div>,none,500,test,,,,,,,,,,,382,71,poldrack-categorize,184,365087,0.0-184.0,5327eeec-1f91-4a55-bff6-0a596276db6b,,1500,250,stim,,"<div class = centerbox><div class = stroop-stim style = ""color:green"">GREEN</div></div>","66,71,82",1500,test,TRUE,71,500,congruent,green,green,,,,,-1,-1,poldrack-single-stim,185,365847,0.0-185.0,5327eeec-1f91-4a55-bff6-0a596276db6b,,500,500,fixation,,<div class = centerbox><div class = fixation>+</div></div>,none,500,test,,,,,,,,,,,483,71,poldrack-categorize,186,368360,0.0-186.0,5327eeec-1f91-4a55-bff6-0a596276db6b,,1500,250,stim,,"<div class = centerbox><div class = stroop-stim style = ""color:green"">GREEN</div></div>","66,71,82",1500,test,TRUE,71,500,congruent,green,green,,,,,-1,-1,poldrack-single-stim,187,369121,0.0-187.0,5327eeec-1f91-4a55-bff6-0a596276db6b,,500,500,fixation,,<div class = centerbox><div class = fixation>+</div></div>,none,500,test,,,,,,,,,,,673,82,poldrack-categorize,188,371634,0.0-188.0,5327eeec-1f91-4a55-bff6-0a596276db6b,,1500,250,stim,,"<div class = centerbox><div class = stroop-stim style = ""color:red"">BLUE</div></div>","66,71,82",1500,test,TRUE,82,500,incongruent,red,blue,,,,,-1,-1,poldrack-single-stim,189,372395,0.0-189.0,5327eeec-1f91-4a55-bff6-0a596276db6b,,500,500,fixation,,<div class = centerbox><div class = fixation>+</div></div>,none,500,test,,,,,,,,,,,592,66,poldrack-categorize,190,374908,0.0-190.0,5327eeec-1f91-4a55-bff6-0a596276db6b,,1500,250,stim,,"<div class = centerbox><div class = stroop-stim style = ""color:blue"">BLUE</div></div>","66,71,82",1500,test,TRUE,66,500,congruent,blue,blue,,,,,-1,-1,poldrack-single-stim,191,375666,0.0-191.0,5327eeec-1f91-4a55-bff6-0a596276db6b,,500,500,fixation,,<div class = centerbox><div class = fixation>+</div></div>,none,500,test,,,,,,,,,,,475,66,poldrack-categorize,192,378176,0.0-192.0,5327eeec-1f91-4a55-bff6-0a596276db6b,,1500,250,stim,,"<div class = centerbox><div class = stroop-stim style = ""color:blue"">BLUE</div></div>","66,71,82",1500,test,TRUE,66,500,congruent,blue,blue,,,,,-1,-1,poldrack-single-stim,193,378937,0.0-193.0,5327eeec-1f91-4a55-bff6-0a596276db6b,,500,500,fixation,,<div class = centerbox><div class = fixation>+</div></div>,none,500,test,,,,,,,,,,,938,82,poldrack-categorize,194,381450,0.0-194.0,5327eeec-1f91-4a55-bff6-0a596276db6b,,1500,250,stim,,"<div class = centerbox><div class = stroop-stim style = ""color:red"">GREEN</div></div>","66,71,82",1500,test,TRUE,82,500,incongruent,red,green,,,,,-1,-1,poldrack-single-stim,195,382211,0.0-195.0,5327eeec-1f91-4a55-bff6-0a596276db6b,,500,500,fixation,,<div class = centerbox><div class = fixation>+</div></div>,none,500,test,,,,,,,,,,,527,82,poldrack-categorize,196,384724,0.0-196.0,5327eeec-1f91-4a55-bff6-0a596276db6b,,1500,250,stim,,"<div class = centerbox><div class = stroop-stim style = ""color:blue"">BLUE</div></div>","66,71,82",1500,test,FALSE,66,500,congruent,blue,blue,,,,,-1,-1,poldrack-single-stim,197,385484,0.0-197.0,5327eeec-1f91-4a55-bff6-0a596276db6b,,500,500,fixation,,<div class = centerbox><div class = fixation>+</div></div>,none,500,test,,,,,,,,,,,758,71,poldrack-categorize,198,387998,0.0-198.0,5327eeec-1f91-4a55-bff6-0a596276db6b,,1500,250,stim,,"<div class = centerbox><div class = stroop-stim style = ""color:green"">BLUE</div></div>","66,71,82",1500,test,TRUE,71,500,incongruent,green,blue,,,,,-1,-1,poldrack-single-stim,199,388758,0.0-199.0,5327eeec-1f91-4a55-bff6-0a596276db6b,,500,500,fixation,,<div class = centerbox><div class = fixation>+</div></div>,none,500,test,,,,,,,,,,,563,71,poldrack-categorize,200,391272,0.0-200.0,5327eeec-1f91-4a55-bff6-0a596276db6b,,1500,250,stim,,"<div class = centerbox><div class = stroop-stim style = ""color:green"">GREEN</div></div>","66,71,82",1500,test,TRUE,71,500,congruent,green,green,,,,,-1,-1,poldrack-single-stim,201,392032,0.0-201.0,5327eeec-1f91-4a55-bff6-0a596276db6b,,500,500,fixation,,<div class = centerbox><div class = fixation>+</div></div>,none,500,test,,,,,,,,,,,585,82,poldrack-categorize,202,394545,0.0-202.0,5327eeec-1f91-4a55-bff6-0a596276db6b,,1500,250,stim,,"<div class = centerbox><div class = stroop-stim style = ""color:red"">GREEN</div></div>","66,71,82",1500,test,TRUE,82,500,incongruent,red,green,,,,,-1,-1,poldrack-single-stim,203,395302,0.0-203.0,5327eeec-1f91-4a55-bff6-0a596276db6b,,500,500,fixation,,<div class = centerbox><div class = fixation>+</div></div>,none,500,test,,,,,,,,,,,597,82,poldrack-categorize,204,397810,0.0-204.0,5327eeec-1f91-4a55-bff6-0a596276db6b,,1500,250,stim,,"<div class = centerbox><div class = stroop-stim style = ""color:red"">GREEN</div></div>","66,71,82",1500,test,TRUE,82,500,incongruent,red,green,,,,,-1,-1,poldrack-single-stim,205,398568,0.0-205.0,5327eeec-1f91-4a55-bff6-0a596276db6b,,500,500,fixation,,<div class = centerbox><div class = fixation>+</div></div>,none,500,test,,,,,,,,,,,529,71,poldrack-categorize,206,401081,0.0-206.0,5327eeec-1f91-4a55-bff6-0a596276db6b,,1500,250,stim,,"<div class = centerbox><div class = stroop-stim style = ""color:green"">GREEN</div></div>","66,71,82",1500,test,TRUE,71,500,congruent,green,green,,,,,-1,-1,poldrack-single-stim,207,401842,0.0-207.0,5327eeec-1f91-4a55-bff6-0a596276db6b,,500,500,fixation,,<div class = centerbox><div class = fixation>+</div></div>,none,500,test,,,,,,,,,,,670,71,poldrack-categorize,208,404355,0.0-208.0,5327eeec-1f91-4a55-bff6-0a596276db6b,,1500,250,stim,,"<div class = centerbox><div class = stroop-stim style = ""color:green"">GREEN</div></div>","66,71,82",1500,test,TRUE,71,500,congruent,green,green,,,,,-1,-1,poldrack-single-stim,209,405116,0.0-209.0,5327eeec-1f91-4a55-bff6-0a596276db6b,,500,500,fixation,,<div class = centerbox><div class = fixation>+</div></div>,none,500,test,,,,,,,,,,,740,66,poldrack-categorize,210,407629,0.0-210.0,5327eeec-1f91-4a55-bff6-0a596276db6b,,1500,250,stim,,"<div class = centerbox><div class = stroop-stim style = ""color:blue"">RED</div></div>","66,71,82",1500,test,TRUE,66,500,incongruent,blue,red,,,,,-1,-1,poldrack-single-stim,211,408389,0.0-211.0,5327eeec-1f91-4a55-bff6-0a596276db6b,,500,500,fixation,,<div class = centerbox><div class = fixation>+</div></div>,none,500,test,,,,,,,,,,,595,66,poldrack-categorize,212,410897,0.0-212.0,5327eeec-1f91-4a55-bff6-0a596276db6b,,1500,250,stim,,"<div class = centerbox><div class = stroop-stim style = ""color:blue"">GREEN</div></div>","66,71,82",1500,test,TRUE,66,500,incongruent,blue,green,,,,,-1,-1,poldrack-single-stim,213,411658,0.0-213.0,5327eeec-1f91-4a55-bff6-0a596276db6b,,500,500,fixation,,<div class = centerbox><div class = fixation>+</div></div>,none,500,test,,,,,,,,,,,463,66,poldrack-categorize,214,414171,0.0-214.0,5327eeec-1f91-4a55-bff6-0a596276db6b,,1500,250,stim,,"<div class = centerbox><div class = stroop-stim style = ""color:blue"">BLUE</div></div>","66,71,82",1500,test,TRUE,66,500,congruent,blue,blue,,,,,-1,-1,poldrack-single-stim,215,414931,0.0-215.0,5327eeec-1f91-4a55-bff6-0a596276db6b,,500,500,fixation,,<div class = centerbox><div class = fixation>+</div></div>,none,500,test,,,,,,,,,,,541,71,poldrack-categorize,216,417445,0.0-216.0,5327eeec-1f91-4a55-bff6-0a596276db6b,,1500,250,stim,,"<div class = centerbox><div class = stroop-stim style = ""color:green"">GREEN</div></div>","66,71,82",1500,test,TRUE,71,500,congruent,green,green,,,,,-1,-1,poldrack-single-stim,217,418205,0.0-217.0,5327eeec-1f91-4a55-bff6-0a596276db6b,,500,500,fixation,,<div class = centerbox><div class = fixation>+</div></div>,none,500,test,,,,,,,,,,,826,66,poldrack-categorize,218,420718,0.0-218.0,5327eeec-1f91-4a55-bff6-0a596276db6b,,1500,250,stim,,"<div class = centerbox><div class = stroop-stim style = ""color:blue"">RED</div></div>","66,71,82",1500,test,TRUE,66,500,incongruent,blue,red,,,,,-1,-1,poldrack-single-stim,219,421479,0.0-219.0,5327eeec-1f91-4a55-bff6-0a596276db6b,,500,500,fixation,,<div class = centerbox><div class = fixation>+</div></div>,none,500,test,,,,,,,,,,,656,71,poldrack-categorize,220,423992,0.0-220.0,5327eeec-1f91-4a55-bff6-0a596276db6b,,1500,250,stim,,"<div class = centerbox><div class = stroop-stim style = ""color:green"">RED</div></div>","66,71,82",1500,test,TRUE,71,500,incongruent,green,red,,,,,-1,-1,poldrack-single-stim,221,424753,0.0-221.0,5327eeec-1f91-4a55-bff6-0a596276db6b,,500,500,fixation,,<div class = centerbox><div class = fixation>+</div></div>,none,500,test,,,,,,,,,,,591,66,poldrack-categorize,222,427266,0.0-222.0,5327eeec-1f91-4a55-bff6-0a596276db6b,,1500,250,stim,,"<div class = centerbox><div class = stroop-stim style = ""color:blue"">BLUE</div></div>","66,71,82",1500,test,TRUE,66,500,congruent,blue,blue,,,,,-1,-1,poldrack-single-stim,223,428027,0.0-223.0,5327eeec-1f91-4a55-bff6-0a596276db6b,,500,500,fixation,,<div class = centerbox><div class = fixation>+</div></div>,none,500,test,,,,,,,,,,,598,82,poldrack-categorize,224,430540,0.0-224.0,5327eeec-1f91-4a55-bff6-0a596276db6b,,1500,250,stim,,"<div class = centerbox><div class = stroop-stim style = ""color:red"">RED</div></div>","66,71,82",1500,test,TRUE,82,500,congruent,red,red,,,,,-1,-1,poldrack-single-stim,225,431300,0.0-225.0,5327eeec-1f91-4a55-bff6-0a596276db6b,,500,500,fixation,,<div class = centerbox><div class = fixation>+</div></div>,none,500,test,,,,,,,,,,,610,82,poldrack-categorize,226,433814,0.0-226.0,5327eeec-1f91-4a55-bff6-0a596276db6b,,1500,250,stim,,"<div class = centerbox><div class = stroop-stim style = ""color:red"">RED</div></div>","66,71,82",1500,test,TRUE,82,500,congruent,red,red,,,,,-1,-1,poldrack-single-stim,227,434568,0.0-227.0,5327eeec-1f91-4a55-bff6-0a596276db6b,,500,500,fixation,,<div class = centerbox><div class = fixation>+</div></div>,none,500,test,,,,,,,,,,,479,82,poldrack-categorize,228,437082,0.0-228.0,5327eeec-1f91-4a55-bff6-0a596276db6b,,1500,250,stim,,"<div class = centerbox><div class = stroop-stim style = ""color:red"">GREEN</div></div>","66,71,82",1500,test,TRUE,82,500,incongruent,red,green,,,,,-1,-1,poldrack-single-stim,229,437842,0.0-229.0,5327eeec-1f91-4a55-bff6-0a596276db6b,,500,500,fixation,,<div class = centerbox><div class = fixation>+</div></div>,none,500,test,,,,,,,,,,,640,66,poldrack-categorize,230,440350,0.0-230.0,5327eeec-1f91-4a55-bff6-0a596276db6b,,1500,250,stim,,"<div class = centerbox><div class = stroop-stim style = ""color:blue"">RED</div></div>","66,71,82",1500,test,TRUE,66,500,incongruent,blue,red,,,,,-1,-1,poldrack-single-stim,231,441110,0.0-231.0,5327eeec-1f91-4a55-bff6-0a596276db6b,,500,500,fixation,,<div class = centerbox><div class = fixation>+</div></div>,none,500,test,,,,,,,,,,,728,71,poldrack-categorize,232,443624,0.0-232.0,5327eeec-1f91-4a55-bff6-0a596276db6b,,1500,250,stim,,"<div class = centerbox><div class = stroop-stim style = ""color:green"">GREEN</div></div>","66,71,82",1500,test,TRUE,71,500,congruent,green,green,,,,,-1,-1,poldrack-single-stim,233,444384,0.0-233.0,5327eeec-1f91-4a55-bff6-0a596276db6b,,500,500,fixation,,<div class = centerbox><div class = fixation>+</div></div>,none,500,test,,,,,,,,,,,870,82,poldrack-categorize,234,446894,0.0-234.0,5327eeec-1f91-4a55-bff6-0a596276db6b,,1500,250,stim,,"<div class = centerbox><div class = stroop-stim style = ""color:red"">RED</div></div>","66,71,82",1500,test,TRUE,82,500,congruent,red,red,,,,,-1,-1,poldrack-single-stim,235,447652,0.0-235.0,5327eeec-1f91-4a55-bff6-0a596276db6b,,500,500,fixation,,<div class = centerbox><div class = fixation>+</div></div>,none,500,test,,,,,,,,,,,412,66,poldrack-categorize,236,450165,0.0-236.0,5327eeec-1f91-4a55-bff6-0a596276db6b,,1500,250,stim,,"<div class = centerbox><div class = stroop-stim style = ""color:red"">RED</div></div>","66,71,82",1500,test,FALSE,82,500,congruent,red,red,,,,,-1,-1,poldrack-single-stim,237,450926,0.0-237.0,5327eeec-1f91-4a55-bff6-0a596276db6b,,500,500,fixation,,<div class = centerbox><div class = fixation>+</div></div>,none,500,test,,,,,,,,,,,623,66,poldrack-categorize,238,453435,0.0-238.0,5327eeec-1f91-4a55-bff6-0a596276db6b,,1500,250,stim,,"<div class = centerbox><div class = stroop-stim style = ""color:blue"">BLUE</div></div>","66,71,82",1500,test,TRUE,66,500,congruent,blue,blue,,,,,-1,-1,poldrack-single-stim,239,454194,0.0-239.0,5327eeec-1f91-4a55-bff6-0a596276db6b,,500,500,fixation,,<div class = centerbox><div class = fixation>+</div></div>,none,500,test,,,,,,,,,,,619,71,poldrack-categorize,240,456707,0.0-240.0,5327eeec-1f91-4a55-bff6-0a596276db6b,,1500,250,stim,,"<div class = centerbox><div class = stroop-stim style = ""color:green"">BLUE</div></div>","66,71,82",1500,test,TRUE,71,500,incongruent,green,blue,,,,,-1,-1,poldrack-single-stim,241,457468,0.0-241.0,5327eeec-1f91-4a55-bff6-0a596276db6b,,500,500,fixation,,<div class = centerbox><div class = fixation>+</div></div>,none,500,test,,,,,,,,,,,587,71,poldrack-categorize,242,459981,0.0-242.0,5327eeec-1f91-4a55-bff6-0a596276db6b,,1500,250,stim,,"<div class = centerbox><div class = stroop-stim style = ""color:green"">GREEN</div></div>","66,71,82",1500,test,TRUE,71,500,congruent,green,green,,,,,-1,-1,poldrack-single-stim,243,460742,0.0-243.0,5327eeec-1f91-4a55-bff6-0a596276db6b,,500,500,fixation,,<div class = centerbox><div class = fixation>+</div></div>,none,500,test,,,,,,,,,,,411,71,poldrack-categorize,244,463249,0.0-244.0,5327eeec-1f91-4a55-bff6-0a596276db6b,,1500,250,stim,,"<div class = centerbox><div class = stroop-stim style = ""color:green"">RED</div></div>","66,71,82",1500,test,TRUE,71,500,incongruent,green,red,,,,,26173,,survey-text,245,489683,0.0-246.0,5327eeec-1f91-4a55-bff6-0a596276db6b,,,,post task questions,,,,,,,,,,,,"{""Q0"":""Choose letter corresponding to color of word on screen"",""Q1"":""NA""}",,,,1469,13,poldrack-text,246,492156,0.0-247.0,5327eeec-1f91-4a55-bff6-0a596276db6b,<div class = centerbox><p class = center-block-text>Thanks for completing this task!</p><p class = center-block-text>Press <strong>enter</strong> to continue.</p></div>,1469,0,end,,,,,,,,,,,,,stroop,TRUE,,961,13,poldrack-text,247,493156,0.0-248.0-0.0,5327eeec-1f91-4a55-bff6-0a596276db6b,<div class = centerbox><p class = center-block-text>Done with instructions. Press <strong>enter</strong> to continue.</p></div>,961,0,instruction,,,,,,,,,,,,,,,,