rt,key_press,trial_type,trial_index,time_elapsed,internal_node_id,subject,text,block_duration,timing_post_trial,trial_id,view_history,stimulus,possible_responses,stim_duration,exp_stage,correct,correct_response,feedback_duration,condition,stim_color,stim_word,responses,exp_id,credit_var,stim_place,stim_id2030,13,text,0,2032,0.0-0.0,5d67612e-2cf1-470d-af14-6581e575da58,,,,,,,,,,,,,,,,,,,,12046,13,poldrack-text,1,15084,0.0-1.0-0.0,5d67612e-2cf1-470d-af14-6581e575da58,<div class = centerbox><p class = center-block-text>Welcome to the experiment. This experiment will take about 8 minutes. Press <strong>enter</strong> to begin.</p></div>,12046,0,instruction,,,,,,,,,,,,,,,,48397,,poldrack-instructions,2,63483,0.0-1.0-1.0,5d67612e-2cf1-470d-af14-6581e575da58,,,,instruction,"[{""page_index"":0,""viewing_time"":48397}]",,,,,,,,,,,,,,,8722,13,poldrack-text,3,73208,0.0-2.0,5d67612e-2cf1-470d-af14-6581e575da58,"<div class = centerbox><p class = block-text>We will start with a few practice trials. Remember, press the key corresponding to the <strong>ink</strong> color of the word: ""r"" for words colored red, ""b"" for words colored blue, and ""g"" for words colored green.</p><p class = block-text>Press <strong>enter</strong> to begin practice.</p></div>",8722,1000,practice_intro,,,,,,,,,,,,,,,,-1,-1,poldrack-single-stim,4,74718,0.0-3.0,5d67612e-2cf1-470d-af14-6581e575da58,,500,500,fixation,,<div class = centerbox><div class = fixation>+</div></div>,none,500,practice,,,,,,,,,,,1499,66,poldrack-categorize,5,77226,0.0-4.0,5d67612e-2cf1-470d-af14-6581e575da58,,1500,250,stim,,"<div class = centerbox><div class = stroop-stim style = ""color:blue"">BLUE</div></div>","66,71,82",1500,practice,TRUE,66,500,congruent,blue,blue,,,,,-1,-1,poldrack-single-stim,6,77984,0.0-5.0,5d67612e-2cf1-470d-af14-6581e575da58,,500,500,fixation,,<div class = centerbox><div class = fixation>+</div></div>,none,500,practice,,,,,,,,,,,1177,66,poldrack-categorize,7,80494,0.0-6.0,5d67612e-2cf1-470d-af14-6581e575da58,,1500,250,stim,,"<div class = centerbox><div class = stroop-stim style = ""color:blue"">GREEN</div></div>","66,71,82",1500,practice,TRUE,66,500,incongruent,blue,green,,,,,-1,-1,poldrack-single-stim,8,81252,0.0-7.0,5d67612e-2cf1-470d-af14-6581e575da58,,500,500,fixation,,<div class = centerbox><div class = fixation>+</div></div>,none,500,practice,,,,,,,,,,,540,66,poldrack-categorize,9,83756,0.0-8.0,5d67612e-2cf1-470d-af14-6581e575da58,,1500,250,stim,,"<div class = centerbox><div class = stroop-stim style = ""color:blue"">BLUE</div></div>","66,71,82",1500,practice,TRUE,66,500,congruent,blue,blue,,,,,-1,-1,poldrack-single-stim,10,84512,0.0-9.0,5d67612e-2cf1-470d-af14-6581e575da58,,500,500,fixation,,<div class = centerbox><div class = fixation>+</div></div>,none,500,practice,,,,,,,,,,,1038,71,poldrack-categorize,11,87024,0.0-10.0,5d67612e-2cf1-470d-af14-6581e575da58,,1500,250,stim,,"<div class = centerbox><div class = stroop-stim style = ""color:green"">GREEN</div></div>","66,71,82",1500,practice,TRUE,71,500,congruent,green,green,,,,,-1,-1,poldrack-single-stim,12,87784,0.0-11.0,5d67612e-2cf1-470d-af14-6581e575da58,,500,500,fixation,,<div class = centerbox><div class = fixation>+</div></div>,none,500,practice,,,,,,,,,,,948,82,poldrack-categorize,13,90300,0.0-12.0,5d67612e-2cf1-470d-af14-6581e575da58,,1500,250,stim,,"<div class = centerbox><div class = stroop-stim style = ""color:red"">GREEN</div></div>","66,71,82",1500,practice,TRUE,82,500,incongruent,red,green,,,,,-1,-1,poldrack-single-stim,14,91058,0.0-13.0,5d67612e-2cf1-470d-af14-6581e575da58,,500,500,fixation,,<div class = centerbox><div class = fixation>+</div></div>,none,500,practice,,,,,,,,,,,611,82,poldrack-categorize,15,93572,0.0-14.0,5d67612e-2cf1-470d-af14-6581e575da58,,1500,250,stim,,"<div class = centerbox><div class = stroop-stim style = ""color:red"">RED</div></div>","66,71,82",1500,practice,TRUE,82,500,congruent,red,red,,,,,-1,-1,poldrack-single-stim,16,94332,0.0-15.0,5d67612e-2cf1-470d-af14-6581e575da58,,500,500,fixation,,<div class = centerbox><div class = fixation>+</div></div>,none,500,practice,,,,,,,,,,,1209,71,poldrack-categorize,17,96845,0.0-16.0,5d67612e-2cf1-470d-af14-6581e575da58,,1500,250,stim,,"<div class = centerbox><div class = stroop-stim style = ""color:green"">RED</div></div>","66,71,82",1500,practice,TRUE,71,500,incongruent,green,red,,,,,-1,-1,poldrack-single-stim,18,97606,0.0-17.0,5d67612e-2cf1-470d-af14-6581e575da58,,500,500,fixation,,<div class = centerbox><div class = fixation>+</div></div>,none,500,practice,,,,,,,,,,,1223,66,poldrack-categorize,19,100119,0.0-18.0,5d67612e-2cf1-470d-af14-6581e575da58,,1500,250,stim,,"<div class = centerbox><div class = stroop-stim style = ""color:blue"">RED</div></div>","66,71,82",1500,practice,TRUE,66,500,incongruent,blue,red,,,,,-1,-1,poldrack-single-stim,20,100874,0.0-19.0,5d67612e-2cf1-470d-af14-6581e575da58,,500,500,fixation,,<div class = centerbox><div class = fixation>+</div></div>,none,500,practice,,,,,,,,,,,906,71,poldrack-categorize,21,103387,0.0-20.0,5d67612e-2cf1-470d-af14-6581e575da58,,1500,250,stim,,"<div class = centerbox><div class = stroop-stim style = ""color:green"">GREEN</div></div>","66,71,82",1500,practice,TRUE,71,500,congruent,green,green,,,,,-1,-1,poldrack-single-stim,22,104148,0.0-21.0,5d67612e-2cf1-470d-af14-6581e575da58,,500,500,fixation,,<div class = centerbox><div class = fixation>+</div></div>,none,500,practice,,,,,,,,,,,896,66,poldrack-categorize,23,106661,0.0-22.0,5d67612e-2cf1-470d-af14-6581e575da58,,1500,250,stim,,"<div class = centerbox><div class = stroop-stim style = ""color:blue"">GREEN</div></div>","66,71,82",1500,practice,TRUE,66,500,incongruent,blue,green,,,,,-1,-1,poldrack-single-stim,24,107419,0.0-23.0,5d67612e-2cf1-470d-af14-6581e575da58,,500,500,fixation,,<div class = centerbox><div class = fixation>+</div></div>,none,500,practice,,,,,,,,,,,1133,71,poldrack-categorize,25,109926,0.0-24.0,5d67612e-2cf1-470d-af14-6581e575da58,,1500,250,stim,,"<div class = centerbox><div class = stroop-stim style = ""color:green"">BLUE</div></div>","66,71,82",1500,practice,TRUE,71,500,incongruent,green,blue,,,,,-1,-1,poldrack-single-stim,26,110684,0.0-25.0,5d67612e-2cf1-470d-af14-6581e575da58,,500,500,fixation,,<div class = centerbox><div class = fixation>+</div></div>,none,500,practice,,,,,,,,,,,776,82,poldrack-categorize,27,113197,0.0-26.0,5d67612e-2cf1-470d-af14-6581e575da58,,1500,250,stim,,"<div class = centerbox><div class = stroop-stim style = ""color:red"">RED</div></div>","66,71,82",1500,practice,TRUE,82,500,congruent,red,red,,,,,-1,-1,poldrack-single-stim,28,113958,0.0-27.0,5d67612e-2cf1-470d-af14-6581e575da58,,500,500,fixation,,<div class = centerbox><div class = fixation>+</div></div>,none,500,practice,,,,,,,,,,,1058,66,poldrack-categorize,29,116465,0.0-28.0,5d67612e-2cf1-470d-af14-6581e575da58,,1500,250,stim,,"<div class = centerbox><div class = stroop-stim style = ""color:blue"">RED</div></div>","66,71,82",1500,practice,TRUE,66,500,incongruent,blue,red,,,,,-1,-1,poldrack-single-stim,30,117226,0.0-29.0,5d67612e-2cf1-470d-af14-6581e575da58,,500,500,fixation,,<div class = centerbox><div class = fixation>+</div></div>,none,500,practice,,,,,,,,,,,794,82,poldrack-categorize,31,119739,0.0-30.0,5d67612e-2cf1-470d-af14-6581e575da58,,1500,250,stim,,"<div class = centerbox><div class = stroop-stim style = ""color:red"">GREEN</div></div>","66,71,82",1500,practice,TRUE,82,500,incongruent,red,green,,,,,-1,-1,poldrack-single-stim,32,120499,0.0-31.0,5d67612e-2cf1-470d-af14-6581e575da58,,500,500,fixation,,<div class = centerbox><div class = fixation>+</div></div>,none,500,practice,,,,,,,,,,,1040,71,poldrack-categorize,33,123012,0.0-32.0,5d67612e-2cf1-470d-af14-6581e575da58,,1500,250,stim,,"<div class = centerbox><div class = stroop-stim style = ""color:green"">GREEN</div></div>","66,71,82",1500,practice,TRUE,71,500,congruent,green,green,,,,,-1,-1,poldrack-single-stim,34,123767,0.0-33.0,5d67612e-2cf1-470d-af14-6581e575da58,,500,500,fixation,,<div class = centerbox><div class = fixation>+</div></div>,none,500,practice,,,,,,,,,,,900,66,poldrack-categorize,35,126281,0.0-34.0,5d67612e-2cf1-470d-af14-6581e575da58,,1500,250,stim,,"<div class = centerbox><div class = stroop-stim style = ""color:blue"">BLUE</div></div>","66,71,82",1500,practice,TRUE,66,500,congruent,blue,blue,,,,,-1,-1,poldrack-single-stim,36,127039,0.0-35.0,5d67612e-2cf1-470d-af14-6581e575da58,,500,500,fixation,,<div class = centerbox><div class = fixation>+</div></div>,none,500,practice,,,,,,,,,,,807,82,poldrack-categorize,37,129545,0.0-36.0,5d67612e-2cf1-470d-af14-6581e575da58,,1500,250,stim,,"<div class = centerbox><div class = stroop-stim style = ""color:red"">BLUE</div></div>","66,71,82",1500,practice,TRUE,82,500,incongruent,red,blue,,,,,-1,-1,poldrack-single-stim,38,130303,0.0-37.0,5d67612e-2cf1-470d-af14-6581e575da58,,500,500,fixation,,<div class = centerbox><div class = fixation>+</div></div>,none,500,practice,,,,,,,,,,,859,71,poldrack-categorize,39,132815,0.0-38.0,5d67612e-2cf1-470d-af14-6581e575da58,,1500,250,stim,,"<div class = centerbox><div class = stroop-stim style = ""color:green"">GREEN</div></div>","66,71,82",1500,practice,TRUE,71,500,congruent,green,green,,,,,-1,-1,poldrack-single-stim,40,133571,0.0-39.0,5d67612e-2cf1-470d-af14-6581e575da58,,500,500,fixation,,<div class = centerbox><div class = fixation>+</div></div>,none,500,practice,,,,,,,,,,,1219,82,poldrack-categorize,41,136079,0.0-40.0,5d67612e-2cf1-470d-af14-6581e575da58,,1500,250,stim,,"<div class = centerbox><div class = stroop-stim style = ""color:red"">RED</div></div>","66,71,82",1500,practice,TRUE,82,500,congruent,red,red,,,,,-1,-1,poldrack-single-stim,42,136839,0.0-41.0,5d67612e-2cf1-470d-af14-6581e575da58,,500,500,fixation,,<div class = centerbox><div class = fixation>+</div></div>,none,500,practice,,,,,,,,,,,867,71,poldrack-categorize,43,139353,0.0-42.0,5d67612e-2cf1-470d-af14-6581e575da58,,1500,250,stim,,"<div class = centerbox><div class = stroop-stim style = ""color:green"">RED</div></div>","66,71,82",1500,practice,TRUE,71,500,incongruent,green,red,,,,,-1,-1,poldrack-single-stim,44,140113,0.0-43.0,5d67612e-2cf1-470d-af14-6581e575da58,,500,500,fixation,,<div class = centerbox><div class = fixation>+</div></div>,none,500,practice,,,,,,,,,,,729,66,poldrack-categorize,45,142626,0.0-44.0,5d67612e-2cf1-470d-af14-6581e575da58,,1500,250,stim,,"<div class = centerbox><div class = stroop-stim style = ""color:blue"">BLUE</div></div>","66,71,82",1500,practice,TRUE,66,500,congruent,blue,blue,,,,,-1,-1,poldrack-single-stim,46,143387,0.0-45.0,5d67612e-2cf1-470d-af14-6581e575da58,,500,500,fixation,,<div class = centerbox><div class = fixation>+</div></div>,none,500,practice,,,,,,,,,,,913,82,poldrack-categorize,47,145894,0.0-46.0,5d67612e-2cf1-470d-af14-6581e575da58,,1500,250,stim,,"<div class = centerbox><div class = stroop-stim style = ""color:red"">BLUE</div></div>","66,71,82",1500,practice,TRUE,82,500,incongruent,red,blue,,,,,-1,-1,poldrack-single-stim,48,146655,0.0-47.0,5d67612e-2cf1-470d-af14-6581e575da58,,500,500,fixation,,<div class = centerbox><div class = fixation>+</div></div>,none,500,practice,,,,,,,,,,,643,82,poldrack-categorize,49,149168,0.0-48.0,5d67612e-2cf1-470d-af14-6581e575da58,,1500,250,stim,,"<div class = centerbox><div class = stroop-stim style = ""color:red"">RED</div></div>","66,71,82",1500,practice,TRUE,82,500,congruent,red,red,,,,,-1,-1,poldrack-single-stim,50,149929,0.0-49.0,5d67612e-2cf1-470d-af14-6581e575da58,,500,500,fixation,,<div class = centerbox><div class = fixation>+</div></div>,none,500,practice,,,,,,,,,,,977,71,poldrack-categorize,51,152442,0.0-50.0,5d67612e-2cf1-470d-af14-6581e575da58,,1500,250,stim,,"<div class = centerbox><div class = stroop-stim style = ""color:green"">BLUE</div></div>","66,71,82",1500,practice,TRUE,71,500,incongruent,green,blue,,,,,5089,13,poldrack-text,52,157786,0.0-52.0,5d67612e-2cf1-470d-af14-6581e575da58,<div class = centerbox><p class = center-block-text>We will now start the test. Respond exactly like you did during practice.</p><p class = center-block-text>Press <strong>enter</strong> to begin the test.</p></div>,5089,1000,test_intro,,,,,,,,,,,,,,,,-1,-1,poldrack-single-stim,53,159297,0.0-53.0,5d67612e-2cf1-470d-af14-6581e575da58,,500,500,fixation,,<div class = centerbox><div class = fixation>+</div></div>,none,500,test,,,,,,,,,,,875,66,poldrack-categorize,54,161801,0.0-54.0,5d67612e-2cf1-470d-af14-6581e575da58,,1500,250,stim,,"<div class = centerbox><div class = stroop-stim style = ""color:blue"">BLUE</div></div>","66,71,82",1500,test,TRUE,66,500,congruent,blue,blue,,,,,-1,-1,poldrack-single-stim,55,162560,0.0-55.0,5d67612e-2cf1-470d-af14-6581e575da58,,500,500,fixation,,<div class = centerbox><div class = fixation>+</div></div>,none,500,test,,,,,,,,,,,923,66,poldrack-categorize,56,165073,0.0-56.0,5d67612e-2cf1-470d-af14-6581e575da58,,1500,250,stim,,"<div class = centerbox><div class = stroop-stim style = ""color:blue"">GREEN</div></div>","66,71,82",1500,test,TRUE,66,500,incongruent,blue,green,,,,,-1,-1,poldrack-single-stim,57,165832,0.0-57.0,5d67612e-2cf1-470d-af14-6581e575da58,,500,500,fixation,,<div class = centerbox><div class = fixation>+</div></div>,none,500,test,,,,,,,,,,,700,66,poldrack-categorize,58,168341,0.0-58.0,5d67612e-2cf1-470d-af14-6581e575da58,,1500,250,stim,,"<div class = centerbox><div class = stroop-stim style = ""color:blue"">BLUE</div></div>","66,71,82",1500,test,TRUE,66,500,congruent,blue,blue,,,,,-1,-1,poldrack-single-stim,59,169101,0.0-59.0,5d67612e-2cf1-470d-af14-6581e575da58,,500,500,fixation,,<div class = centerbox><div class = fixation>+</div></div>,none,500,test,,,,,,,,,,,731,66,poldrack-categorize,60,171614,0.0-60.0,5d67612e-2cf1-470d-af14-6581e575da58,,1500,250,stim,,"<div class = centerbox><div class = stroop-stim style = ""color:blue"">BLUE</div></div>","66,71,82",1500,test,TRUE,66,500,congruent,blue,blue,,,,,-1,-1,poldrack-single-stim,61,172372,0.0-61.0,5d67612e-2cf1-470d-af14-6581e575da58,,500,500,fixation,,<div class = centerbox><div class = fixation>+</div></div>,none,500,test,,,,,,,,,,,783,71,poldrack-categorize,62,174883,0.0-62.0,5d67612e-2cf1-470d-af14-6581e575da58,,1500,250,stim,,"<div class = centerbox><div class = stroop-stim style = ""color:green"">BLUE</div></div>","66,71,82",1500,test,TRUE,71,500,incongruent,green,blue,,,,,-1,-1,poldrack-single-stim,63,175643,0.0-63.0,5d67612e-2cf1-470d-af14-6581e575da58,,500,500,fixation,,<div class = centerbox><div class = fixation>+</div></div>,none,500,test,,,,,,,,,,,900,71,poldrack-categorize,64,178156,0.0-64.0,5d67612e-2cf1-470d-af14-6581e575da58,,1500,250,stim,,"<div class = centerbox><div class = stroop-stim style = ""color:green"">RED</div></div>","66,71,82",1500,test,TRUE,71,500,incongruent,green,red,,,,,-1,-1,poldrack-single-stim,65,178917,0.0-65.0,5d67612e-2cf1-470d-af14-6581e575da58,,500,500,fixation,,<div class = centerbox><div class = fixation>+</div></div>,none,500,test,,,,,,,,,,,746,66,poldrack-categorize,66,181430,0.0-66.0,5d67612e-2cf1-470d-af14-6581e575da58,,1500,250,stim,,"<div class = centerbox><div class = stroop-stim style = ""color:blue"">BLUE</div></div>","66,71,82",1500,test,TRUE,66,500,congruent,blue,blue,,,,,-1,-1,poldrack-single-stim,67,182187,0.0-67.0,5d67612e-2cf1-470d-af14-6581e575da58,,500,500,fixation,,<div class = centerbox><div class = fixation>+</div></div>,none,500,test,,,,,,,,,,,766,66,poldrack-categorize,68,184698,0.0-68.0,5d67612e-2cf1-470d-af14-6581e575da58,,1500,250,stim,,"<div class = centerbox><div class = stroop-stim style = ""color:blue"">BLUE</div></div>","66,71,82",1500,test,TRUE,66,500,congruent,blue,blue,,,,,-1,-1,poldrack-single-stim,69,185459,0.0-69.0,5d67612e-2cf1-470d-af14-6581e575da58,,500,500,fixation,,<div class = centerbox><div class = fixation>+</div></div>,none,500,test,,,,,,,,,,,708,82,poldrack-categorize,70,187966,0.0-70.0,5d67612e-2cf1-470d-af14-6581e575da58,,1500,250,stim,,"<div class = centerbox><div class = stroop-stim style = ""color:red"">RED</div></div>","66,71,82",1500,test,TRUE,82,500,congruent,red,red,,,,,-1,-1,poldrack-single-stim,71,188727,0.0-71.0,5d67612e-2cf1-470d-af14-6581e575da58,,500,500,fixation,,<div class = centerbox><div class = fixation>+</div></div>,none,500,test,,,,,,,,,,,928,71,poldrack-categorize,72,191240,0.0-72.0,5d67612e-2cf1-470d-af14-6581e575da58,,1500,250,stim,,"<div class = centerbox><div class = stroop-stim style = ""color:green"">GREEN</div></div>","66,71,82",1500,test,TRUE,71,500,congruent,green,green,,,,,-1,-1,poldrack-single-stim,73,192001,0.0-73.0,5d67612e-2cf1-470d-af14-6581e575da58,,500,500,fixation,,<div class = centerbox><div class = fixation>+</div></div>,none,500,test,,,,,,,,,,,974,71,poldrack-categorize,74,194514,0.0-74.0,5d67612e-2cf1-470d-af14-6581e575da58,,1500,250,stim,,"<div class = centerbox><div class = stroop-stim style = ""color:green"">RED</div></div>","66,71,82",1500,test,TRUE,71,500,incongruent,green,red,,,,,-1,-1,poldrack-single-stim,75,195269,0.0-75.0,5d67612e-2cf1-470d-af14-6581e575da58,,500,500,fixation,,<div class = centerbox><div class = fixation>+</div></div>,none,500,test,,,,,,,,,,,746,82,poldrack-categorize,76,197782,0.0-76.0,5d67612e-2cf1-470d-af14-6581e575da58,,1500,250,stim,,"<div class = centerbox><div class = stroop-stim style = ""color:red"">GREEN</div></div>","66,71,82",1500,test,TRUE,82,500,incongruent,red,green,,,,,-1,-1,poldrack-single-stim,77,198542,0.0-77.0,5d67612e-2cf1-470d-af14-6581e575da58,,500,500,fixation,,<div class = centerbox><div class = fixation>+</div></div>,none,500,test,,,,,,,,,,,776,71,poldrack-categorize,78,201056,0.0-78.0,5d67612e-2cf1-470d-af14-6581e575da58,,1500,250,stim,,"<div class = centerbox><div class = stroop-stim style = ""color:green"">GREEN</div></div>","66,71,82",1500,test,TRUE,71,500,congruent,green,green,,,,,-1,-1,poldrack-single-stim,79,201816,0.0-79.0,5d67612e-2cf1-470d-af14-6581e575da58,,500,500,fixation,,<div class = centerbox><div class = fixation>+</div></div>,none,500,test,,,,,,,,,,,798,66,poldrack-categorize,80,204330,0.0-80.0,5d67612e-2cf1-470d-af14-6581e575da58,,1500,250,stim,,"<div class = centerbox><div class = stroop-stim style = ""color:blue"">BLUE</div></div>","66,71,82",1500,test,TRUE,66,500,congruent,blue,blue,,,,,-1,-1,poldrack-single-stim,81,205090,0.0-81.0,5d67612e-2cf1-470d-af14-6581e575da58,,500,500,fixation,,<div class = centerbox><div class = fixation>+</div></div>,none,500,test,,,,,,,,,,,803,82,poldrack-categorize,82,207603,0.0-82.0,5d67612e-2cf1-470d-af14-6581e575da58,,1500,250,stim,,"<div class = centerbox><div class = stroop-stim style = ""color:red"">GREEN</div></div>","66,71,82",1500,test,TRUE,82,500,incongruent,red,green,,,,,-1,-1,poldrack-single-stim,83,208364,0.0-83.0,5d67612e-2cf1-470d-af14-6581e575da58,,500,500,fixation,,<div class = centerbox><div class = fixation>+</div></div>,none,500,test,,,,,,,,,,,578,82,poldrack-categorize,84,210877,0.0-84.0,5d67612e-2cf1-470d-af14-6581e575da58,,1500,250,stim,,"<div class = centerbox><div class = stroop-stim style = ""color:red"">RED</div></div>","66,71,82",1500,test,TRUE,82,500,congruent,red,red,,,,,-1,-1,poldrack-single-stim,85,211638,0.0-85.0,5d67612e-2cf1-470d-af14-6581e575da58,,500,500,fixation,,<div class = centerbox><div class = fixation>+</div></div>,none,500,test,,,,,,,,,,,953,66,poldrack-categorize,86,214151,0.0-86.0,5d67612e-2cf1-470d-af14-6581e575da58,,1500,250,stim,,"<div class = centerbox><div class = stroop-stim style = ""color:blue"">GREEN</div></div>","66,71,82",1500,test,TRUE,66,500,incongruent,blue,green,,,,,-1,-1,poldrack-single-stim,87,214912,0.0-87.0,5d67612e-2cf1-470d-af14-6581e575da58,,500,500,fixation,,<div class = centerbox><div class = fixation>+</div></div>,none,500,test,,,,,,,,,,,991,82,poldrack-categorize,88,217425,0.0-88.0,5d67612e-2cf1-470d-af14-6581e575da58,,1500,250,stim,,"<div class = centerbox><div class = stroop-stim style = ""color:red"">RED</div></div>","66,71,82",1500,test,TRUE,82,500,congruent,red,red,,,,,-1,-1,poldrack-single-stim,89,218185,0.0-89.0,5d67612e-2cf1-470d-af14-6581e575da58,,500,500,fixation,,<div class = centerbox><div class = fixation>+</div></div>,none,500,test,,,,,,,,,,,715,66,poldrack-categorize,90,220698,0.0-90.0,5d67612e-2cf1-470d-af14-6581e575da58,,1500,250,stim,,"<div class = centerbox><div class = stroop-stim style = ""color:blue"">BLUE</div></div>","66,71,82",1500,test,TRUE,66,500,congruent,blue,blue,,,,,-1,-1,poldrack-single-stim,91,221459,0.0-91.0,5d67612e-2cf1-470d-af14-6581e575da58,,500,500,fixation,,<div class = centerbox><div class = fixation>+</div></div>,none,500,test,,,,,,,,,,,993,66,poldrack-categorize,92,223972,0.0-92.0,5d67612e-2cf1-470d-af14-6581e575da58,,1500,250,stim,,"<div class = centerbox><div class = stroop-stim style = ""color:blue"">GREEN</div></div>","66,71,82",1500,test,TRUE,66,500,incongruent,blue,green,,,,,-1,-1,poldrack-single-stim,93,224733,0.0-93.0,5d67612e-2cf1-470d-af14-6581e575da58,,500,500,fixation,,<div class = centerbox><div class = fixation>+</div></div>,none,500,test,,,,,,,,,,,-1,-1,poldrack-categorize,94,227246,0.0-94.0,5d67612e-2cf1-470d-af14-6581e575da58,,1500,250,stim,,"<div class = centerbox><div class = stroop-stim style = ""color:blue"">RED</div></div>","66,71,82",1500,test,FALSE,66,500,incongruent,blue,red,,,,,-1,-1,poldrack-single-stim,95,228007,0.0-95.0,5d67612e-2cf1-470d-af14-6581e575da58,,500,500,fixation,,<div class = centerbox><div class = fixation>+</div></div>,none,500,test,,,,,,,,,,,1062,66,poldrack-categorize,96,230518,0.0-96.0,5d67612e-2cf1-470d-af14-6581e575da58,,1500,250,stim,,"<div class = centerbox><div class = stroop-stim style = ""color:blue"">RED</div></div>","66,71,82",1500,test,TRUE,66,500,incongruent,blue,red,,,,,-1,-1,poldrack-single-stim,97,231275,0.0-97.0,5d67612e-2cf1-470d-af14-6581e575da58,,500,500,fixation,,<div class = centerbox><div class = fixation>+</div></div>,none,500,test,,,,,,,,,,,657,66,poldrack-categorize,98,233788,0.0-98.0,5d67612e-2cf1-470d-af14-6581e575da58,,1500,250,stim,,"<div class = centerbox><div class = stroop-stim style = ""color:blue"">BLUE</div></div>","66,71,82",1500,test,TRUE,66,500,congruent,blue,blue,,,,,-1,-1,poldrack-single-stim,99,234548,0.0-99.0,5d67612e-2cf1-470d-af14-6581e575da58,,500,500,fixation,,<div class = centerbox><div class = fixation>+</div></div>,none,500,test,,,,,,,,,,,841,71,poldrack-categorize,100,237062,0.0-100.0,5d67612e-2cf1-470d-af14-6581e575da58,,1500,250,stim,,"<div class = centerbox><div class = stroop-stim style = ""color:green"">GREEN</div></div>","66,71,82",1500,test,TRUE,71,500,congruent,green,green,,,,,-1,-1,poldrack-single-stim,101,237822,0.0-101.0,5d67612e-2cf1-470d-af14-6581e575da58,,500,500,fixation,,<div class = centerbox><div class = fixation>+</div></div>,none,500,test,,,,,,,,,,,806,71,poldrack-categorize,102,240336,0.0-102.0,5d67612e-2cf1-470d-af14-6581e575da58,,1500,250,stim,,"<div class = centerbox><div class = stroop-stim style = ""color:green"">BLUE</div></div>","66,71,82",1500,test,TRUE,71,500,incongruent,green,blue,,,,,-1,-1,poldrack-single-stim,103,241096,0.0-103.0,5d67612e-2cf1-470d-af14-6581e575da58,,500,500,fixation,,<div class = centerbox><div class = fixation>+</div></div>,none,500,test,,,,,,,,,,,539,71,poldrack-categorize,104,243609,0.0-104.0,5d67612e-2cf1-470d-af14-6581e575da58,,1500,250,stim,,"<div class = centerbox><div class = stroop-stim style = ""color:green"">GREEN</div></div>","66,71,82",1500,test,TRUE,71,500,congruent,green,green,,,,,-1,-1,poldrack-single-stim,105,244370,0.0-105.0,5d67612e-2cf1-470d-af14-6581e575da58,,500,500,fixation,,<div class = centerbox><div class = fixation>+</div></div>,none,500,test,,,,,,,,,,,667,82,poldrack-categorize,106,246880,0.0-106.0,5d67612e-2cf1-470d-af14-6581e575da58,,1500,250,stim,,"<div class = centerbox><div class = stroop-stim style = ""color:red"">BLUE</div></div>","66,71,82",1500,test,TRUE,82,500,incongruent,red,blue,,,,,-1,-1,poldrack-single-stim,107,247638,0.0-107.0,5d67612e-2cf1-470d-af14-6581e575da58,,500,500,fixation,,<div class = centerbox><div class = fixation>+</div></div>,none,500,test,,,,,,,,,,,797,66,poldrack-categorize,108,250151,0.0-108.0,5d67612e-2cf1-470d-af14-6581e575da58,,1500,250,stim,,"<div class = centerbox><div class = stroop-stim style = ""color:blue"">GREEN</div></div>","66,71,82",1500,test,TRUE,66,500,incongruent,blue,green,,,,,-1,-1,poldrack-single-stim,109,250913,0.0-109.0,5d67612e-2cf1-470d-af14-6581e575da58,,500,500,fixation,,<div class = centerbox><div class = fixation>+</div></div>,none,500,test,,,,,,,,,,,797,71,poldrack-categorize,110,253425,0.0-110.0,5d67612e-2cf1-470d-af14-6581e575da58,,1500,250,stim,,"<div class = centerbox><div class = stroop-stim style = ""color:green"">GREEN</div></div>","66,71,82",1500,test,TRUE,71,500,congruent,green,green,,,,,-1,-1,poldrack-single-stim,111,254185,0.0-111.0,5d67612e-2cf1-470d-af14-6581e575da58,,500,500,fixation,,<div class = centerbox><div class = fixation>+</div></div>,none,500,test,,,,,,,,,,,705,66,poldrack-categorize,112,256699,0.0-112.0,5d67612e-2cf1-470d-af14-6581e575da58,,1500,250,stim,,"<div class = centerbox><div class = stroop-stim style = ""color:blue"">BLUE</div></div>","66,71,82",1500,test,TRUE,66,500,congruent,blue,blue,,,,,-1,-1,poldrack-single-stim,113,257459,0.0-113.0,5d67612e-2cf1-470d-af14-6581e575da58,,500,500,fixation,,<div class = centerbox><div class = fixation>+</div></div>,none,500,test,,,,,,,,,,,767,82,poldrack-categorize,114,259973,0.0-114.0,5d67612e-2cf1-470d-af14-6581e575da58,,1500,250,stim,,"<div class = centerbox><div class = stroop-stim style = ""color:red"">BLUE</div></div>","66,71,82",1500,test,TRUE,82,500,incongruent,red,blue,,,,,-1,-1,poldrack-single-stim,115,260733,0.0-115.0,5d67612e-2cf1-470d-af14-6581e575da58,,500,500,fixation,,<div class = centerbox><div class = fixation>+</div></div>,none,500,test,,,,,,,,,,,869,66,poldrack-categorize,116,263246,0.0-116.0,5d67612e-2cf1-470d-af14-6581e575da58,,1500,250,stim,,"<div class = centerbox><div class = stroop-stim style = ""color:blue"">GREEN</div></div>","66,71,82",1500,test,TRUE,66,500,incongruent,blue,green,,,,,-1,-1,poldrack-single-stim,117,264007,0.0-117.0,5d67612e-2cf1-470d-af14-6581e575da58,,500,500,fixation,,<div class = centerbox><div class = fixation>+</div></div>,none,500,test,,,,,,,,,,,683,66,poldrack-categorize,118,266520,0.0-118.0,5d67612e-2cf1-470d-af14-6581e575da58,,1500,250,stim,,"<div class = centerbox><div class = stroop-stim style = ""color:blue"">GREEN</div></div>","66,71,82",1500,test,TRUE,66,500,incongruent,blue,green,,,,,-1,-1,poldrack-single-stim,119,267275,0.0-119.0,5d67612e-2cf1-470d-af14-6581e575da58,,500,500,fixation,,<div class = centerbox><div class = fixation>+</div></div>,none,500,test,,,,,,,,,,,787,82,poldrack-categorize,120,269782,0.0-120.0,5d67612e-2cf1-470d-af14-6581e575da58,,1500,250,stim,,"<div class = centerbox><div class = stroop-stim style = ""color:red"">GREEN</div></div>","66,71,82",1500,test,TRUE,82,500,incongruent,red,green,,,,,-1,-1,poldrack-single-stim,121,270543,0.0-121.0,5d67612e-2cf1-470d-af14-6581e575da58,,500,500,fixation,,<div class = centerbox><div class = fixation>+</div></div>,none,500,test,,,,,,,,,,,802,82,poldrack-categorize,122,273056,0.0-122.0,5d67612e-2cf1-470d-af14-6581e575da58,,1500,250,stim,,"<div class = centerbox><div class = stroop-stim style = ""color:red"">RED</div></div>","66,71,82",1500,test,TRUE,82,500,congruent,red,red,,,,,-1,-1,poldrack-single-stim,123,273813,0.0-123.0,5d67612e-2cf1-470d-af14-6581e575da58,,500,500,fixation,,<div class = centerbox><div class = fixation>+</div></div>,none,500,test,,,,,,,,,,,694,66,poldrack-categorize,124,276324,0.0-124.0,5d67612e-2cf1-470d-af14-6581e575da58,,1500,250,stim,,"<div class = centerbox><div class = stroop-stim style = ""color:blue"">BLUE</div></div>","66,71,82",1500,test,TRUE,66,500,congruent,blue,blue,,,,,-1,-1,poldrack-single-stim,125,277085,0.0-125.0,5d67612e-2cf1-470d-af14-6581e575da58,,500,500,fixation,,<div class = centerbox><div class = fixation>+</div></div>,none,500,test,,,,,,,,,,,741,82,poldrack-categorize,126,279598,0.0-126.0,5d67612e-2cf1-470d-af14-6581e575da58,,1500,250,stim,,"<div class = centerbox><div class = stroop-stim style = ""color:red"">RED</div></div>","66,71,82",1500,test,TRUE,82,500,congruent,red,red,,,,,-1,-1,poldrack-single-stim,127,280359,0.0-127.0,5d67612e-2cf1-470d-af14-6581e575da58,,500,500,fixation,,<div class = centerbox><div class = fixation>+</div></div>,none,500,test,,,,,,,,,,,994,71,poldrack-categorize,128,282872,0.0-128.0,5d67612e-2cf1-470d-af14-6581e575da58,,1500,250,stim,,"<div class = centerbox><div class = stroop-stim style = ""color:green"">RED</div></div>","66,71,82",1500,test,TRUE,71,500,incongruent,green,red,,,,,-1,-1,poldrack-single-stim,129,283632,0.0-129.0,5d67612e-2cf1-470d-af14-6581e575da58,,500,500,fixation,,<div class = centerbox><div class = fixation>+</div></div>,none,500,test,,,,,,,,,,,872,66,poldrack-categorize,130,286145,0.0-130.0,5d67612e-2cf1-470d-af14-6581e575da58,,1500,250,stim,,"<div class = centerbox><div class = stroop-stim style = ""color:blue"">RED</div></div>","66,71,82",1500,test,TRUE,66,500,incongruent,blue,red,,,,,-1,-1,poldrack-single-stim,131,286907,0.0-131.0,5d67612e-2cf1-470d-af14-6581e575da58,,500,500,fixation,,<div class = centerbox><div class = fixation>+</div></div>,none,500,test,,,,,,,,,,,646,82,poldrack-categorize,132,289418,0.0-132.0,5d67612e-2cf1-470d-af14-6581e575da58,,1500,250,stim,,"<div class = centerbox><div class = stroop-stim style = ""color:red"">RED</div></div>","66,71,82",1500,test,TRUE,82,500,congruent,red,red,,,,,-1,-1,poldrack-single-stim,133,290174,0.0-133.0,5d67612e-2cf1-470d-af14-6581e575da58,,500,500,fixation,,<div class = centerbox><div class = fixation>+</div></div>,none,500,test,,,,,,,,,,,691,66,poldrack-categorize,134,292687,0.0-134.0,5d67612e-2cf1-470d-af14-6581e575da58,,1500,250,stim,,"<div class = centerbox><div class = stroop-stim style = ""color:blue"">RED</div></div>","66,71,82",1500,test,TRUE,66,500,incongruent,blue,red,,,,,-1,-1,poldrack-single-stim,135,293448,0.0-135.0,5d67612e-2cf1-470d-af14-6581e575da58,,500,500,fixation,,<div class = centerbox><div class = fixation>+</div></div>,none,500,test,,,,,,,,,,,705,82,poldrack-categorize,136,295961,0.0-136.0,5d67612e-2cf1-470d-af14-6581e575da58,,1500,250,stim,,"<div class = centerbox><div class = stroop-stim style = ""color:red"">BLUE</div></div>","66,71,82",1500,test,TRUE,82,500,incongruent,red,blue,,,,,-1,-1,poldrack-single-stim,137,296722,0.0-137.0,5d67612e-2cf1-470d-af14-6581e575da58,,500,500,fixation,,<div class = centerbox><div class = fixation>+</div></div>,none,500,test,,,,,,,,,,,646,82,poldrack-categorize,138,299235,0.0-138.0,5d67612e-2cf1-470d-af14-6581e575da58,,1500,250,stim,,"<div class = centerbox><div class = stroop-stim style = ""color:red"">RED</div></div>","66,71,82",1500,test,TRUE,82,500,congruent,red,red,,,,,-1,-1,poldrack-single-stim,139,299995,0.0-139.0,5d67612e-2cf1-470d-af14-6581e575da58,,500,500,fixation,,<div class = centerbox><div class = fixation>+</div></div>,none,500,test,,,,,,,,,,,868,71,poldrack-categorize,140,302509,0.0-140.0,5d67612e-2cf1-470d-af14-6581e575da58,,1500,250,stim,,"<div class = centerbox><div class = stroop-stim style = ""color:green"">BLUE</div></div>","66,71,82",1500,test,TRUE,71,500,incongruent,green,blue,,,,,-1,-1,poldrack-single-stim,141,303268,0.0-141.0,5d67612e-2cf1-470d-af14-6581e575da58,,500,500,fixation,,<div class = centerbox><div class = fixation>+</div></div>,none,500,test,,,,,,,,,,,860,82,poldrack-categorize,142,305782,0.0-142.0,5d67612e-2cf1-470d-af14-6581e575da58,,1500,250,stim,,"<div class = centerbox><div class = stroop-stim style = ""color:red"">RED</div></div>","66,71,82",1500,test,TRUE,82,500,congruent,red,red,,,,,-1,-1,poldrack-single-stim,143,306543,0.0-143.0,5d67612e-2cf1-470d-af14-6581e575da58,,500,500,fixation,,<div class = centerbox><div class = fixation>+</div></div>,none,500,test,,,,,,,,,,,536,82,poldrack-categorize,144,309056,0.0-144.0,5d67612e-2cf1-470d-af14-6581e575da58,,1500,250,stim,,"<div class = centerbox><div class = stroop-stim style = ""color:red"">GREEN</div></div>","66,71,82",1500,test,TRUE,82,500,incongruent,red,green,,,,,-1,-1,poldrack-single-stim,145,309817,0.0-145.0,5d67612e-2cf1-470d-af14-6581e575da58,,500,500,fixation,,<div class = centerbox><div class = fixation>+</div></div>,none,500,test,,,,,,,,,,,438,82,poldrack-categorize,146,312330,0.0-146.0,5d67612e-2cf1-470d-af14-6581e575da58,,1500,250,stim,,"<div class = centerbox><div class = stroop-stim style = ""color:red"">RED</div></div>","66,71,82",1500,test,TRUE,82,500,congruent,red,red,,,,,-1,-1,poldrack-single-stim,147,313091,0.0-147.0,5d67612e-2cf1-470d-af14-6581e575da58,,500,500,fixation,,<div class = centerbox><div class = fixation>+</div></div>,none,500,test,,,,,,,,,,,997,71,poldrack-categorize,148,315604,0.0-148.0,5d67612e-2cf1-470d-af14-6581e575da58,,1500,250,stim,,"<div class = centerbox><div class = stroop-stim style = ""color:green"">BLUE</div></div>","66,71,82",1500,test,TRUE,71,500,incongruent,green,blue,,,,,-1,-1,poldrack-single-stim,149,316364,0.0-149.0,5d67612e-2cf1-470d-af14-6581e575da58,,500,500,fixation,,<div class = centerbox><div class = fixation>+</div></div>,none,500,test,,,,,,,,,,,850,82,poldrack-categorize,150,318878,0.0-150.0,5d67612e-2cf1-470d-af14-6581e575da58,,1500,250,stim,,"<div class = centerbox><div class = stroop-stim style = ""color:red"">GREEN</div></div>","66,71,82",1500,test,TRUE,82,500,incongruent,red,green,,,,,-1,-1,poldrack-single-stim,151,319633,0.0-151.0,5d67612e-2cf1-470d-af14-6581e575da58,,500,500,fixation,,<div class = centerbox><div class = fixation>+</div></div>,none,500,test,,,,,,,,,,,774,82,poldrack-categorize,152,322142,0.0-152.0,5d67612e-2cf1-470d-af14-6581e575da58,,1500,250,stim,,"<div class = centerbox><div class = stroop-stim style = ""color:red"">GREEN</div></div>","66,71,82",1500,test,TRUE,82,500,incongruent,red,green,,,,,-1,-1,poldrack-single-stim,153,322901,0.0-153.0,5d67612e-2cf1-470d-af14-6581e575da58,,500,500,fixation,,<div class = centerbox><div class = fixation>+</div></div>,none,500,test,,,,,,,,,,,762,71,poldrack-categorize,154,325414,0.0-154.0,5d67612e-2cf1-470d-af14-6581e575da58,,1500,250,stim,,"<div class = centerbox><div class = stroop-stim style = ""color:green"">BLUE</div></div>","66,71,82",1500,test,TRUE,71,500,incongruent,green,blue,,,,,-1,-1,poldrack-single-stim,155,326174,0.0-155.0,5d67612e-2cf1-470d-af14-6581e575da58,,500,500,fixation,,<div class = centerbox><div class = fixation>+</div></div>,none,500,test,,,,,,,,,,,520,71,poldrack-categorize,156,328688,0.0-156.0,5d67612e-2cf1-470d-af14-6581e575da58,,1500,250,stim,,"<div class = centerbox><div class = stroop-stim style = ""color:green"">GREEN</div></div>","66,71,82",1500,test,TRUE,71,500,congruent,green,green,,,,,-1,-1,poldrack-single-stim,157,329449,0.0-157.0,5d67612e-2cf1-470d-af14-6581e575da58,,500,500,fixation,,<div class = centerbox><div class = fixation>+</div></div>,none,500,test,,,,,,,,,,,526,71,poldrack-categorize,158,331962,0.0-158.0,5d67612e-2cf1-470d-af14-6581e575da58,,1500,250,stim,,"<div class = centerbox><div class = stroop-stim style = ""color:green"">GREEN</div></div>","66,71,82",1500,test,TRUE,71,500,congruent,green,green,,,,,-1,-1,poldrack-single-stim,159,332722,0.0-159.0,5d67612e-2cf1-470d-af14-6581e575da58,,500,500,fixation,,<div class = centerbox><div class = fixation>+</div></div>,none,500,test,,,,,,,,,,,699,66,poldrack-categorize,160,335229,0.0-160.0,5d67612e-2cf1-470d-af14-6581e575da58,,1500,250,stim,,"<div class = centerbox><div class = stroop-stim style = ""color:blue"">BLUE</div></div>","66,71,82",1500,test,TRUE,66,500,congruent,blue,blue,,,,,-1,-1,poldrack-single-stim,161,335990,0.0-161.0,5d67612e-2cf1-470d-af14-6581e575da58,,500,500,fixation,,<div class = centerbox><div class = fixation>+</div></div>,none,500,test,,,,,,,,,,,615,82,poldrack-categorize,162,338503,0.0-162.0,5d67612e-2cf1-470d-af14-6581e575da58,,1500,250,stim,,"<div class = centerbox><div class = stroop-stim style = ""color:red"">RED</div></div>","66,71,82",1500,test,TRUE,82,500,congruent,red,red,,,,,-1,-1,poldrack-single-stim,163,339264,0.0-163.0,5d67612e-2cf1-470d-af14-6581e575da58,,500,500,fixation,,<div class = centerbox><div class = fixation>+</div></div>,none,500,test,,,,,,,,,,,582,82,poldrack-categorize,164,341777,0.0-164.0,5d67612e-2cf1-470d-af14-6581e575da58,,1500,250,stim,,"<div class = centerbox><div class = stroop-stim style = ""color:red"">RED</div></div>","66,71,82",1500,test,TRUE,82,500,congruent,red,red,,,,,-1,-1,poldrack-single-stim,165,342537,0.0-165.0,5d67612e-2cf1-470d-af14-6581e575da58,,500,500,fixation,,<div class = centerbox><div class = fixation>+</div></div>,none,500,test,,,,,,,,,,,620,82,poldrack-categorize,166,345051,0.0-166.0,5d67612e-2cf1-470d-af14-6581e575da58,,1500,250,stim,,"<div class = centerbox><div class = stroop-stim style = ""color:red"">RED</div></div>","66,71,82",1500,test,TRUE,82,500,congruent,red,red,,,,,-1,-1,poldrack-single-stim,167,345811,0.0-167.0,5d67612e-2cf1-470d-af14-6581e575da58,,500,500,fixation,,<div class = centerbox><div class = fixation>+</div></div>,none,500,test,,,,,,,,,,,817,66,poldrack-categorize,168,348324,0.0-168.0,5d67612e-2cf1-470d-af14-6581e575da58,,1500,250,stim,,"<div class = centerbox><div class = stroop-stim style = ""color:blue"">GREEN</div></div>","66,71,82",1500,test,TRUE,66,500,incongruent,blue,green,,,,,-1,-1,poldrack-single-stim,169,349085,0.0-169.0,5d67612e-2cf1-470d-af14-6581e575da58,,500,500,fixation,,<div class = centerbox><div class = fixation>+</div></div>,none,500,test,,,,,,,,,,,935,71,poldrack-categorize,170,351598,0.0-170.0,5d67612e-2cf1-470d-af14-6581e575da58,,1500,250,stim,,"<div class = centerbox><div class = stroop-stim style = ""color:green"">RED</div></div>","66,71,82",1500,test,TRUE,71,500,incongruent,green,red,,,,,-1,-1,poldrack-single-stim,171,352359,0.0-171.0,5d67612e-2cf1-470d-af14-6581e575da58,,500,500,fixation,,<div class = centerbox><div class = fixation>+</div></div>,none,500,test,,,,,,,,,,,645,66,poldrack-categorize,172,354872,0.0-172.0,5d67612e-2cf1-470d-af14-6581e575da58,,1500,250,stim,,"<div class = centerbox><div class = stroop-stim style = ""color:blue"">BLUE</div></div>","66,71,82",1500,test,TRUE,66,500,congruent,blue,blue,,,,,-1,-1,poldrack-single-stim,173,355633,0.0-173.0,5d67612e-2cf1-470d-af14-6581e575da58,,500,500,fixation,,<div class = centerbox><div class = fixation>+</div></div>,none,500,test,,,,,,,,,,,604,82,poldrack-categorize,174,358146,0.0-174.0,5d67612e-2cf1-470d-af14-6581e575da58,,1500,250,stim,,"<div class = centerbox><div class = stroop-stim style = ""color:red"">BLUE</div></div>","66,71,82",1500,test,TRUE,82,500,incongruent,red,blue,,,,,-1,-1,poldrack-single-stim,175,358907,0.0-175.0,5d67612e-2cf1-470d-af14-6581e575da58,,500,500,fixation,,<div class = centerbox><div class = fixation>+</div></div>,none,500,test,,,,,,,,,,,514,82,poldrack-categorize,176,361420,0.0-176.0,5d67612e-2cf1-470d-af14-6581e575da58,,1500,250,stim,,"<div class = centerbox><div class = stroop-stim style = ""color:red"">RED</div></div>","66,71,82",1500,test,TRUE,82,500,congruent,red,red,,,,,-1,-1,poldrack-single-stim,177,362180,0.0-177.0,5d67612e-2cf1-470d-af14-6581e575da58,,500,500,fixation,,<div class = centerbox><div class = fixation>+</div></div>,none,500,test,,,,,,,,,,,711,71,poldrack-categorize,178,364694,0.0-178.0,5d67612e-2cf1-470d-af14-6581e575da58,,1500,250,stim,,"<div class = centerbox><div class = stroop-stim style = ""color:green"">RED</div></div>","66,71,82",1500,test,TRUE,71,500,incongruent,green,red,,,,,-1,-1,poldrack-single-stim,179,365454,0.0-179.0,5d67612e-2cf1-470d-af14-6581e575da58,,500,500,fixation,,<div class = centerbox><div class = fixation>+</div></div>,none,500,test,,,,,,,,,,,517,71,poldrack-categorize,180,367967,0.0-180.0,5d67612e-2cf1-470d-af14-6581e575da58,,1500,250,stim,,"<div class = centerbox><div class = stroop-stim style = ""color:green"">GREEN</div></div>","66,71,82",1500,test,TRUE,71,500,congruent,green,green,,,,,-1,-1,poldrack-single-stim,181,368728,0.0-181.0,5d67612e-2cf1-470d-af14-6581e575da58,,500,500,fixation,,<div class = centerbox><div class = fixation>+</div></div>,none,500,test,,,,,,,,,,,619,71,poldrack-categorize,182,371241,0.0-182.0,5d67612e-2cf1-470d-af14-6581e575da58,,1500,250,stim,,"<div class = centerbox><div class = stroop-stim style = ""color:green"">GREEN</div></div>","66,71,82",1500,test,TRUE,71,500,congruent,green,green,,,,,-1,-1,poldrack-single-stim,183,372002,0.0-183.0,5d67612e-2cf1-470d-af14-6581e575da58,,500,500,fixation,,<div class = centerbox><div class = fixation>+</div></div>,none,500,test,,,,,,,,,,,730,71,poldrack-categorize,184,374515,0.0-184.0,5d67612e-2cf1-470d-af14-6581e575da58,,1500,250,stim,,"<div class = centerbox><div class = stroop-stim style = ""color:green"">BLUE</div></div>","66,71,82",1500,test,TRUE,71,500,incongruent,green,blue,,,,,-1,-1,poldrack-single-stim,185,375276,0.0-185.0,5d67612e-2cf1-470d-af14-6581e575da58,,500,500,fixation,,<div class = centerbox><div class = fixation>+</div></div>,none,500,test,,,,,,,,,,,799,71,poldrack-categorize,186,377789,0.0-186.0,5d67612e-2cf1-470d-af14-6581e575da58,,1500,250,stim,,"<div class = centerbox><div class = stroop-stim style = ""color:green"">RED</div></div>","66,71,82",1500,test,TRUE,71,500,incongruent,green,red,,,,,-1,-1,poldrack-single-stim,187,378550,0.0-187.0,5d67612e-2cf1-470d-af14-6581e575da58,,500,500,fixation,,<div class = centerbox><div class = fixation>+</div></div>,none,500,test,,,,,,,,,,,693,71,poldrack-categorize,188,381063,0.0-188.0,5d67612e-2cf1-470d-af14-6581e575da58,,1500,250,stim,,"<div class = centerbox><div class = stroop-stim style = ""color:green"">GREEN</div></div>","66,71,82",1500,test,TRUE,71,500,congruent,green,green,,,,,-1,-1,poldrack-single-stim,189,381823,0.0-189.0,5d67612e-2cf1-470d-af14-6581e575da58,,500,500,fixation,,<div class = centerbox><div class = fixation>+</div></div>,none,500,test,,,,,,,,,,,611,82,poldrack-categorize,190,384335,0.0-190.0,5d67612e-2cf1-470d-af14-6581e575da58,,1500,250,stim,,"<div class = centerbox><div class = stroop-stim style = ""color:red"">RED</div></div>","66,71,82",1500,test,TRUE,82,500,congruent,red,red,,,,,-1,-1,poldrack-single-stim,191,385091,0.0-191.0,5d67612e-2cf1-470d-af14-6581e575da58,,500,500,fixation,,<div class = centerbox><div class = fixation>+</div></div>,none,500,test,,,,,,,,,,,647,82,poldrack-categorize,192,387604,0.0-192.0,5d67612e-2cf1-470d-af14-6581e575da58,,1500,250,stim,,"<div class = centerbox><div class = stroop-stim style = ""color:red"">RED</div></div>","66,71,82",1500,test,TRUE,82,500,congruent,red,red,,,,,-1,-1,poldrack-single-stim,193,388359,0.0-193.0,5d67612e-2cf1-470d-af14-6581e575da58,,500,500,fixation,,<div class = centerbox><div class = fixation>+</div></div>,none,500,test,,,,,,,,,,,931,71,poldrack-categorize,194,390869,0.0-194.0,5d67612e-2cf1-470d-af14-6581e575da58,,1500,250,stim,,"<div class = centerbox><div class = stroop-stim style = ""color:green"">GREEN</div></div>","66,71,82",1500,test,TRUE,71,500,congruent,green,green,,,,,-1,-1,poldrack-single-stim,195,391627,0.0-195.0,5d67612e-2cf1-470d-af14-6581e575da58,,500,500,fixation,,<div class = centerbox><div class = fixation>+</div></div>,none,500,test,,,,,,,,,,,774,71,poldrack-categorize,196,394140,0.0-196.0,5d67612e-2cf1-470d-af14-6581e575da58,,1500,250,stim,,"<div class = centerbox><div class = stroop-stim style = ""color:green"">RED</div></div>","66,71,82",1500,test,TRUE,71,500,incongruent,green,red,,,,,-1,-1,poldrack-single-stim,197,394901,0.0-197.0,5d67612e-2cf1-470d-af14-6581e575da58,,500,500,fixation,,<div class = centerbox><div class = fixation>+</div></div>,none,500,test,,,,,,,,,,,557,82,poldrack-categorize,198,397414,0.0-198.0,5d67612e-2cf1-470d-af14-6581e575da58,,1500,250,stim,,"<div class = centerbox><div class = stroop-stim style = ""color:red"">RED</div></div>","66,71,82",1500,test,TRUE,82,500,congruent,red,red,,,,,-1,-1,poldrack-single-stim,199,398169,0.0-199.0,5d67612e-2cf1-470d-af14-6581e575da58,,500,500,fixation,,<div class = centerbox><div class = fixation>+</div></div>,none,500,test,,,,,,,,,,,736,71,poldrack-categorize,200,400682,0.0-200.0,5d67612e-2cf1-470d-af14-6581e575da58,,1500,250,stim,,"<div class = centerbox><div class = stroop-stim style = ""color:green"">GREEN</div></div>","66,71,82",1500,test,TRUE,71,500,congruent,green,green,,,,,-1,-1,poldrack-single-stim,201,401443,0.0-201.0,5d67612e-2cf1-470d-af14-6581e575da58,,500,500,fixation,,<div class = centerbox><div class = fixation>+</div></div>,none,500,test,,,,,,,,,,,591,66,poldrack-categorize,202,403956,0.0-202.0,5d67612e-2cf1-470d-af14-6581e575da58,,1500,250,stim,,"<div class = centerbox><div class = stroop-stim style = ""color:blue"">BLUE</div></div>","66,71,82",1500,test,TRUE,66,500,congruent,blue,blue,,,,,-1,-1,poldrack-single-stim,203,404713,0.0-203.0,5d67612e-2cf1-470d-af14-6581e575da58,,500,500,fixation,,<div class = centerbox><div class = fixation>+</div></div>,none,500,test,,,,,,,,,,,681,82,poldrack-categorize,204,407224,0.0-204.0,5d67612e-2cf1-470d-af14-6581e575da58,,1500,250,stim,,"<div class = centerbox><div class = stroop-stim style = ""color:red"">BLUE</div></div>","66,71,82",1500,test,TRUE,82,500,incongruent,red,blue,,,,,-1,-1,poldrack-single-stim,205,407985,0.0-205.0,5d67612e-2cf1-470d-af14-6581e575da58,,500,500,fixation,,<div class = centerbox><div class = fixation>+</div></div>,none,500,test,,,,,,,,,,,1121,66,poldrack-categorize,206,410498,0.0-206.0,5d67612e-2cf1-470d-af14-6581e575da58,,1500,250,stim,,"<div class = centerbox><div class = stroop-stim style = ""color:blue"">RED</div></div>","66,71,82",1500,test,TRUE,66,500,incongruent,blue,red,,,,,-1,-1,poldrack-single-stim,207,411258,0.0-207.0,5d67612e-2cf1-470d-af14-6581e575da58,,500,500,fixation,,<div class = centerbox><div class = fixation>+</div></div>,none,500,test,,,,,,,,,,,-1,-1,poldrack-categorize,208,413772,0.0-208.0,5d67612e-2cf1-470d-af14-6581e575da58,,1500,250,stim,,"<div class = centerbox><div class = stroop-stim style = ""color:blue"">RED</div></div>","66,71,82",1500,test,FALSE,66,500,incongruent,blue,red,,,,,-1,-1,poldrack-single-stim,209,414532,0.0-209.0,5d67612e-2cf1-470d-af14-6581e575da58,,500,500,fixation,,<div class = centerbox><div class = fixation>+</div></div>,none,500,test,,,,,,,,,,,668,82,poldrack-categorize,210,417045,0.0-210.0,5d67612e-2cf1-470d-af14-6581e575da58,,1500,250,stim,,"<div class = centerbox><div class = stroop-stim style = ""color:red"">BLUE</div></div>","66,71,82",1500,test,TRUE,82,500,incongruent,red,blue,,,,,-1,-1,poldrack-single-stim,211,417800,0.0-211.0,5d67612e-2cf1-470d-af14-6581e575da58,,500,500,fixation,,<div class = centerbox><div class = fixation>+</div></div>,none,500,test,,,,,,,,,,,640,66,poldrack-categorize,212,420313,0.0-212.0,5d67612e-2cf1-470d-af14-6581e575da58,,1500,250,stim,,"<div class = centerbox><div class = stroop-stim style = ""color:blue"">BLUE</div></div>","66,71,82",1500,test,TRUE,66,500,congruent,blue,blue,,,,,-1,-1,poldrack-single-stim,213,421074,0.0-213.0,5d67612e-2cf1-470d-af14-6581e575da58,,500,500,fixation,,<div class = centerbox><div class = fixation>+</div></div>,none,500,test,,,,,,,,,,,472,66,poldrack-categorize,214,423587,0.0-214.0,5d67612e-2cf1-470d-af14-6581e575da58,,1500,250,stim,,"<div class = centerbox><div class = stroop-stim style = ""color:blue"">BLUE</div></div>","66,71,82",1500,test,TRUE,66,500,congruent,blue,blue,,,,,-1,-1,poldrack-single-stim,215,424348,0.0-215.0,5d67612e-2cf1-470d-af14-6581e575da58,,500,500,fixation,,<div class = centerbox><div class = fixation>+</div></div>,none,500,test,,,,,,,,,,,492,71,poldrack-categorize,216,426858,0.0-216.0,5d67612e-2cf1-470d-af14-6581e575da58,,1500,250,stim,,"<div class = centerbox><div class = stroop-stim style = ""color:green"">BLUE</div></div>","66,71,82",1500,test,TRUE,71,500,incongruent,green,blue,,,,,-1,-1,poldrack-single-stim,217,427616,0.0-217.0,5d67612e-2cf1-470d-af14-6581e575da58,,500,500,fixation,,<div class = centerbox><div class = fixation>+</div></div>,none,500,test,,,,,,,,,,,975,66,poldrack-categorize,218,430129,0.0-218.0,5d67612e-2cf1-470d-af14-6581e575da58,,1500,250,stim,,"<div class = centerbox><div class = stroop-stim style = ""color:blue"">GREEN</div></div>","66,71,82",1500,test,TRUE,66,500,incongruent,blue,green,,,,,-1,-1,poldrack-single-stim,219,430890,0.0-219.0,5d67612e-2cf1-470d-af14-6581e575da58,,500,500,fixation,,<div class = centerbox><div class = fixation>+</div></div>,none,500,test,,,,,,,,,,,510,71,poldrack-categorize,220,433403,0.0-220.0,5d67612e-2cf1-470d-af14-6581e575da58,,1500,250,stim,,"<div class = centerbox><div class = stroop-stim style = ""color:green"">GREEN</div></div>","66,71,82",1500,test,TRUE,71,500,congruent,green,green,,,,,-1,-1,poldrack-single-stim,221,434163,0.0-221.0,5d67612e-2cf1-470d-af14-6581e575da58,,500,500,fixation,,<div class = centerbox><div class = fixation>+</div></div>,none,500,test,,,,,,,,,,,1013,66,poldrack-categorize,222,436677,0.0-222.0,5d67612e-2cf1-470d-af14-6581e575da58,,1500,250,stim,,"<div class = centerbox><div class = stroop-stim style = ""color:blue"">RED</div></div>","66,71,82",1500,test,TRUE,66,500,incongruent,blue,red,,,,,-1,-1,poldrack-single-stim,223,437437,0.0-223.0,5d67612e-2cf1-470d-af14-6581e575da58,,500,500,fixation,,<div class = centerbox><div class = fixation>+</div></div>,none,500,test,,,,,,,,,,,785,82,poldrack-categorize,224,439950,0.0-224.0,5d67612e-2cf1-470d-af14-6581e575da58,,1500,250,stim,,"<div class = centerbox><div class = stroop-stim style = ""color:red"">BLUE</div></div>","66,71,82",1500,test,TRUE,82,500,incongruent,red,blue,,,,,-1,-1,poldrack-single-stim,225,440711,0.0-225.0,5d67612e-2cf1-470d-af14-6581e575da58,,500,500,fixation,,<div class = centerbox><div class = fixation>+</div></div>,none,500,test,,,,,,,,,,,671,82,poldrack-categorize,226,443221,0.0-226.0,5d67612e-2cf1-470d-af14-6581e575da58,,1500,250,stim,,"<div class = centerbox><div class = stroop-stim style = ""color:red"">GREEN</div></div>","66,71,82",1500,test,TRUE,82,500,incongruent,red,green,,,,,-1,-1,poldrack-single-stim,227,443979,0.0-227.0,5d67612e-2cf1-470d-af14-6581e575da58,,500,500,fixation,,<div class = centerbox><div class = fixation>+</div></div>,none,500,test,,,,,,,,,,,499,71,poldrack-categorize,228,446492,0.0-228.0,5d67612e-2cf1-470d-af14-6581e575da58,,1500,250,stim,,"<div class = centerbox><div class = stroop-stim style = ""color:green"">GREEN</div></div>","66,71,82",1500,test,TRUE,71,500,congruent,green,green,,,,,-1,-1,poldrack-single-stim,229,447248,0.0-229.0,5d67612e-2cf1-470d-af14-6581e575da58,,500,500,fixation,,<div class = centerbox><div class = fixation>+</div></div>,none,500,test,,,,,,,,,,,525,71,poldrack-categorize,230,449760,0.0-230.0,5d67612e-2cf1-470d-af14-6581e575da58,,1500,250,stim,,"<div class = centerbox><div class = stroop-stim style = ""color:green"">BLUE</div></div>","66,71,82",1500,test,TRUE,71,500,incongruent,green,blue,,,,,-1,-1,poldrack-single-stim,231,450521,0.0-231.0,5d67612e-2cf1-470d-af14-6581e575da58,,500,500,fixation,,<div class = centerbox><div class = fixation>+</div></div>,none,500,test,,,,,,,,,,,773,82,poldrack-categorize,232,453034,0.0-232.0,5d67612e-2cf1-470d-af14-6581e575da58,,1500,250,stim,,"<div class = centerbox><div class = stroop-stim style = ""color:red"">BLUE</div></div>","66,71,82",1500,test,TRUE,82,500,incongruent,red,blue,,,,,-1,-1,poldrack-single-stim,233,453795,0.0-233.0,5d67612e-2cf1-470d-af14-6581e575da58,,500,500,fixation,,<div class = centerbox><div class = fixation>+</div></div>,none,500,test,,,,,,,,,,,843,82,poldrack-categorize,234,456308,0.0-234.0,5d67612e-2cf1-470d-af14-6581e575da58,,1500,250,stim,,"<div class = centerbox><div class = stroop-stim style = ""color:red"">GREEN</div></div>","66,71,82",1500,test,TRUE,82,500,incongruent,red,green,,,,,-1,-1,poldrack-single-stim,235,457068,0.0-235.0,5d67612e-2cf1-470d-af14-6581e575da58,,500,500,fixation,,<div class = centerbox><div class = fixation>+</div></div>,none,500,test,,,,,,,,,,,1202,71,poldrack-categorize,236,459578,0.0-236.0,5d67612e-2cf1-470d-af14-6581e575da58,,1500,250,stim,,"<div class = centerbox><div class = stroop-stim style = ""color:green"">RED</div></div>","66,71,82",1500,test,TRUE,71,500,incongruent,green,red,,,,,-1,-1,poldrack-single-stim,237,460336,0.0-237.0,5d67612e-2cf1-470d-af14-6581e575da58,,500,500,fixation,,<div class = centerbox><div class = fixation>+</div></div>,none,500,test,,,,,,,,,,,469,66,poldrack-categorize,238,462850,0.0-238.0,5d67612e-2cf1-470d-af14-6581e575da58,,1500,250,stim,,"<div class = centerbox><div class = stroop-stim style = ""color:blue"">RED</div></div>","66,71,82",1500,test,TRUE,66,500,incongruent,blue,red,,,,,-1,-1,poldrack-single-stim,239,463610,0.0-239.0,5d67612e-2cf1-470d-af14-6581e575da58,,500,500,fixation,,<div class = centerbox><div class = fixation>+</div></div>,none,500,test,,,,,,,,,,,1131,66,poldrack-categorize,240,466124,0.0-240.0,5d67612e-2cf1-470d-af14-6581e575da58,,1500,250,stim,,"<div class = centerbox><div class = stroop-stim style = ""color:blue"">BLUE</div></div>","66,71,82",1500,test,TRUE,66,500,congruent,blue,blue,,,,,-1,-1,poldrack-single-stim,241,466884,0.0-241.0,5d67612e-2cf1-470d-af14-6581e575da58,,500,500,fixation,,<div class = centerbox><div class = fixation>+</div></div>,none,500,test,,,,,,,,,,,505,71,poldrack-categorize,242,469397,0.0-242.0,5d67612e-2cf1-470d-af14-6581e575da58,,1500,250,stim,,"<div class = centerbox><div class = stroop-stim style = ""color:green"">GREEN</div></div>","66,71,82",1500,test,TRUE,71,500,congruent,green,green,,,,,-1,-1,poldrack-single-stim,243,470153,0.0-243.0,5d67612e-2cf1-470d-af14-6581e575da58,,500,500,fixation,,<div class = centerbox><div class = fixation>+</div></div>,none,500,test,,,,,,,,,,,861,71,poldrack-categorize,244,472665,0.0-244.0,5d67612e-2cf1-470d-af14-6581e575da58,,1500,250,stim,,"<div class = centerbox><div class = stroop-stim style = ""color:green"">GREEN</div></div>","66,71,82",1500,test,TRUE,71,500,congruent,green,green,,,,,86129,,survey-text,245,559054,0.0-246.0,5d67612e-2cf1-470d-af14-6581e575da58,,,,post task questions,,,,,,,,,,,,"{""Q0"":""I had to specify what the color of the ink was for each word."",""Q1"":""""}",,,,2108,13,poldrack-text,246,562168,0.0-247.0,5d67612e-2cf1-470d-af14-6581e575da58,<div class = centerbox><p class = center-block-text>Thanks for completing this task!</p><p class = center-block-text>Press <strong>enter</strong> to continue.</p></div>,2108,0,end,,,,,,,,,,,,,stroop,TRUE,,1922,13,poldrack-text,247,564128,0.0-248.0-0.0,5d67612e-2cf1-470d-af14-6581e575da58,<div class = centerbox><p class = center-block-text>Done with instructions. Press <strong>enter</strong> to continue.</p></div>,1922,0,instruction,,,,,,,,,,,,,,,,