rt,key_press,trial_type,trial_index,time_elapsed,internal_node_id,subject,text,block_duration,timing_post_trial,trial_id,view_history,stimulus,possible_responses,stim_duration,exp_stage,correct,correct_response,feedback_duration,condition,stim_color,stim_word,responses,exp_id,credit_var,stim_place,stim_id6822,13,text,0,6825,0.0-0.0,586a92ac-0efc-4e08-a48a-831f6a3b63f1,,,,,,,,,,,,,,,,,,,,1721,13,poldrack-text,1,9550,0.0-1.0-0.0,586a92ac-0efc-4e08-a48a-831f6a3b63f1,<div class = centerbox><p class = center-block-text>Welcome to the experiment. This experiment will take about 8 minutes. Press <strong>enter</strong> to begin.</p></div>,1721,0,instruction,,,,,,,,,,,,,,,,24762,,poldrack-instructions,2,34312,0.0-1.0-1.0,586a92ac-0efc-4e08-a48a-831f6a3b63f1,,,,instruction,"[{""page_index"":0,""viewing_time"":24761}]",,,,,,,,,,,,,,,10575,13,poldrack-text,3,45892,0.0-2.0,586a92ac-0efc-4e08-a48a-831f6a3b63f1,"<div class = centerbox><p class = block-text>We will start with a few practice trials. Remember, press the key corresponding to the <strong>ink</strong> color of the word: ""r"" for words colored red, ""b"" for words colored blue, and ""g"" for words colored green.</p><p class = block-text>Press <strong>enter</strong> to begin practice.</p></div>",10575,1000,practice_intro,,,,,,,,,,,,,,,,-1,-1,poldrack-single-stim,4,47402,0.0-3.0,586a92ac-0efc-4e08-a48a-831f6a3b63f1,,500,500,fixation,,<div class = centerbox><div class = fixation>+</div></div>,none,500,practice,,,,,,,,,,,1274,71,poldrack-categorize,5,49912,0.0-4.0,586a92ac-0efc-4e08-a48a-831f6a3b63f1,,1500,250,stim,,"<div class = centerbox><div class = stroop-stim style = ""color:green"">GREEN</div></div>","66,71,82",1500,practice,TRUE,71,500,congruent,green,green,,,,,-1,-1,poldrack-single-stim,6,50669,0.0-5.0,586a92ac-0efc-4e08-a48a-831f6a3b63f1,,500,500,fixation,,<div class = centerbox><div class = fixation>+</div></div>,none,500,practice,,,,,,,,,,,756,82,poldrack-categorize,7,53183,0.0-6.0,586a92ac-0efc-4e08-a48a-831f6a3b63f1,,1500,250,stim,,"<div class = centerbox><div class = stroop-stim style = ""color:red"">RED</div></div>","66,71,82",1500,practice,TRUE,82,500,congruent,red,red,,,,,-1,-1,poldrack-single-stim,8,53941,0.0-7.0,586a92ac-0efc-4e08-a48a-831f6a3b63f1,,500,500,fixation,,<div class = centerbox><div class = fixation>+</div></div>,none,500,practice,,,,,,,,,,,846,71,poldrack-categorize,9,56451,0.0-8.0,586a92ac-0efc-4e08-a48a-831f6a3b63f1,,1500,250,stim,,"<div class = centerbox><div class = stroop-stim style = ""color:green"">BLUE</div></div>","66,71,82",1500,practice,TRUE,71,500,incongruent,green,blue,,,,,-1,-1,poldrack-single-stim,10,57211,0.0-9.0,586a92ac-0efc-4e08-a48a-831f6a3b63f1,,500,500,fixation,,<div class = centerbox><div class = fixation>+</div></div>,none,500,practice,,,,,,,,,,,590,66,poldrack-categorize,11,59721,0.0-10.0,586a92ac-0efc-4e08-a48a-831f6a3b63f1,,1500,250,stim,,"<div class = centerbox><div class = stroop-stim style = ""color:blue"">BLUE</div></div>","66,71,82",1500,practice,TRUE,66,500,congruent,blue,blue,,,,,-1,-1,poldrack-single-stim,12,60480,0.0-11.0,586a92ac-0efc-4e08-a48a-831f6a3b63f1,,500,500,fixation,,<div class = centerbox><div class = fixation>+</div></div>,none,500,practice,,,,,,,,,,,642,66,poldrack-categorize,13,62994,0.0-12.0,586a92ac-0efc-4e08-a48a-831f6a3b63f1,,1500,250,stim,,"<div class = centerbox><div class = stroop-stim style = ""color:blue"">GREEN</div></div>","66,71,82",1500,practice,TRUE,66,500,incongruent,blue,green,,,,,-1,-1,poldrack-single-stim,14,63753,0.0-13.0,586a92ac-0efc-4e08-a48a-831f6a3b63f1,,500,500,fixation,,<div class = centerbox><div class = fixation>+</div></div>,none,500,practice,,,,,,,,,,,555,66,poldrack-categorize,15,66260,0.0-14.0,586a92ac-0efc-4e08-a48a-831f6a3b63f1,,1500,250,stim,,"<div class = centerbox><div class = stroop-stim style = ""color:blue"">BLUE</div></div>","66,71,82",1500,practice,TRUE,66,500,congruent,blue,blue,,,,,-1,-1,poldrack-single-stim,16,67021,0.0-15.0,586a92ac-0efc-4e08-a48a-831f6a3b63f1,,500,500,fixation,,<div class = centerbox><div class = fixation>+</div></div>,none,500,practice,,,,,,,,,,,627,82,poldrack-categorize,17,69534,0.0-16.0,586a92ac-0efc-4e08-a48a-831f6a3b63f1,,1500,250,stim,,"<div class = centerbox><div class = stroop-stim style = ""color:red"">GREEN</div></div>","66,71,82",1500,practice,TRUE,82,500,incongruent,red,green,,,,,-1,-1,poldrack-single-stim,18,70295,0.0-17.0,586a92ac-0efc-4e08-a48a-831f6a3b63f1,,500,500,fixation,,<div class = centerbox><div class = fixation>+</div></div>,none,500,practice,,,,,,,,,,,587,66,poldrack-categorize,19,72808,0.0-18.0,586a92ac-0efc-4e08-a48a-831f6a3b63f1,,1500,250,stim,,"<div class = centerbox><div class = stroop-stim style = ""color:blue"">GREEN</div></div>","66,71,82",1500,practice,TRUE,66,500,incongruent,blue,green,,,,,-1,-1,poldrack-single-stim,20,73569,0.0-19.0,586a92ac-0efc-4e08-a48a-831f6a3b63f1,,500,500,fixation,,<div class = centerbox><div class = fixation>+</div></div>,none,500,practice,,,,,,,,,,,611,71,poldrack-categorize,21,76076,0.0-20.0,586a92ac-0efc-4e08-a48a-831f6a3b63f1,,1500,250,stim,,"<div class = centerbox><div class = stroop-stim style = ""color:green"">BLUE</div></div>","66,71,82",1500,practice,TRUE,71,500,incongruent,green,blue,,,,,-1,-1,poldrack-single-stim,22,76837,0.0-21.0,586a92ac-0efc-4e08-a48a-831f6a3b63f1,,500,500,fixation,,<div class = centerbox><div class = fixation>+</div></div>,none,500,practice,,,,,,,,,,,532,66,poldrack-categorize,23,79350,0.0-22.0,586a92ac-0efc-4e08-a48a-831f6a3b63f1,,1500,250,stim,,"<div class = centerbox><div class = stroop-stim style = ""color:blue"">RED</div></div>","66,71,82",1500,practice,TRUE,66,500,incongruent,blue,red,,,,,-1,-1,poldrack-single-stim,24,80110,0.0-23.0,586a92ac-0efc-4e08-a48a-831f6a3b63f1,,500,500,fixation,,<div class = centerbox><div class = fixation>+</div></div>,none,500,practice,,,,,,,,,,,506,82,poldrack-categorize,25,82624,0.0-24.0,586a92ac-0efc-4e08-a48a-831f6a3b63f1,,1500,250,stim,,"<div class = centerbox><div class = stroop-stim style = ""color:red"">RED</div></div>","66,71,82",1500,practice,TRUE,82,500,congruent,red,red,,,,,-1,-1,poldrack-single-stim,26,83384,0.0-25.0,586a92ac-0efc-4e08-a48a-831f6a3b63f1,,500,500,fixation,,<div class = centerbox><div class = fixation>+</div></div>,none,500,practice,,,,,,,,,,,480,66,poldrack-categorize,27,85897,0.0-26.0,586a92ac-0efc-4e08-a48a-831f6a3b63f1,,1500,250,stim,,"<div class = centerbox><div class = stroop-stim style = ""color:blue"">BLUE</div></div>","66,71,82",1500,practice,TRUE,66,500,congruent,blue,blue,,,,,-1,-1,poldrack-single-stim,28,86652,0.0-27.0,586a92ac-0efc-4e08-a48a-831f6a3b63f1,,500,500,fixation,,<div class = centerbox><div class = fixation>+</div></div>,none,500,practice,,,,,,,,,,,595,82,poldrack-categorize,29,89166,0.0-28.0,586a92ac-0efc-4e08-a48a-831f6a3b63f1,,1500,250,stim,,"<div class = centerbox><div class = stroop-stim style = ""color:red"">RED</div></div>","66,71,82",1500,practice,TRUE,82,500,congruent,red,red,,,,,-1,-1,poldrack-single-stim,30,89920,0.0-29.0,586a92ac-0efc-4e08-a48a-831f6a3b63f1,,500,500,fixation,,<div class = centerbox><div class = fixation>+</div></div>,none,500,practice,,,,,,,,,,,575,82,poldrack-categorize,31,92428,0.0-30.0,586a92ac-0efc-4e08-a48a-831f6a3b63f1,,1500,250,stim,,"<div class = centerbox><div class = stroop-stim style = ""color:red"">RED</div></div>","66,71,82",1500,practice,TRUE,82,500,congruent,red,red,,,,,-1,-1,poldrack-single-stim,32,93188,0.0-31.0,586a92ac-0efc-4e08-a48a-831f6a3b63f1,,500,500,fixation,,<div class = centerbox><div class = fixation>+</div></div>,none,500,practice,,,,,,,,,,,723,71,poldrack-categorize,33,95701,0.0-32.0,586a92ac-0efc-4e08-a48a-831f6a3b63f1,,1500,250,stim,,"<div class = centerbox><div class = stroop-stim style = ""color:green"">RED</div></div>","66,71,82",1500,practice,TRUE,71,500,incongruent,green,red,,,,,-1,-1,poldrack-single-stim,34,96462,0.0-33.0,586a92ac-0efc-4e08-a48a-831f6a3b63f1,,500,500,fixation,,<div class = centerbox><div class = fixation>+</div></div>,none,500,practice,,,,,,,,,,,680,82,poldrack-categorize,35,98975,0.0-34.0,586a92ac-0efc-4e08-a48a-831f6a3b63f1,,1500,250,stim,,"<div class = centerbox><div class = stroop-stim style = ""color:red"">GREEN</div></div>","66,71,82",1500,practice,TRUE,82,500,incongruent,red,green,,,,,-1,-1,poldrack-single-stim,36,99736,0.0-35.0,586a92ac-0efc-4e08-a48a-831f6a3b63f1,,500,500,fixation,,<div class = centerbox><div class = fixation>+</div></div>,none,500,practice,,,,,,,,,,,590,71,poldrack-categorize,37,102249,0.0-36.0,586a92ac-0efc-4e08-a48a-831f6a3b63f1,,1500,250,stim,,"<div class = centerbox><div class = stroop-stim style = ""color:green"">GREEN</div></div>","66,71,82",1500,practice,TRUE,71,500,congruent,green,green,,,,,-1,-1,poldrack-single-stim,38,103006,0.0-37.0,586a92ac-0efc-4e08-a48a-831f6a3b63f1,,500,500,fixation,,<div class = centerbox><div class = fixation>+</div></div>,none,500,practice,,,,,,,,,,,536,71,poldrack-categorize,39,105517,0.0-38.0,586a92ac-0efc-4e08-a48a-831f6a3b63f1,,1500,250,stim,,"<div class = centerbox><div class = stroop-stim style = ""color:green"">GREEN</div></div>","66,71,82",1500,practice,TRUE,71,500,congruent,green,green,,,,,-1,-1,poldrack-single-stim,40,106275,0.0-39.0,586a92ac-0efc-4e08-a48a-831f6a3b63f1,,500,500,fixation,,<div class = centerbox><div class = fixation>+</div></div>,none,500,practice,,,,,,,,,,,486,71,poldrack-categorize,41,108785,0.0-40.0,586a92ac-0efc-4e08-a48a-831f6a3b63f1,,1500,250,stim,,"<div class = centerbox><div class = stroop-stim style = ""color:green"">GREEN</div></div>","66,71,82",1500,practice,TRUE,71,500,congruent,green,green,,,,,-1,-1,poldrack-single-stim,42,109546,0.0-41.0,586a92ac-0efc-4e08-a48a-831f6a3b63f1,,500,500,fixation,,<div class = centerbox><div class = fixation>+</div></div>,none,500,practice,,,,,,,,,,,997,82,poldrack-categorize,43,112059,0.0-42.0,586a92ac-0efc-4e08-a48a-831f6a3b63f1,,1500,250,stim,,"<div class = centerbox><div class = stroop-stim style = ""color:red"">BLUE</div></div>","66,71,82",1500,practice,TRUE,82,500,incongruent,red,blue,,,,,-1,-1,poldrack-single-stim,44,112820,0.0-43.0,586a92ac-0efc-4e08-a48a-831f6a3b63f1,,500,500,fixation,,<div class = centerbox><div class = fixation>+</div></div>,none,500,practice,,,,,,,,,,,609,71,poldrack-categorize,45,115335,0.0-44.0,586a92ac-0efc-4e08-a48a-831f6a3b63f1,,1500,250,stim,,"<div class = centerbox><div class = stroop-stim style = ""color:green"">RED</div></div>","66,71,82",1500,practice,TRUE,71,500,incongruent,green,red,,,,,-1,-1,poldrack-single-stim,46,116092,0.0-45.0,586a92ac-0efc-4e08-a48a-831f6a3b63f1,,500,500,fixation,,<div class = centerbox><div class = fixation>+</div></div>,none,500,practice,,,,,,,,,,,518,66,poldrack-categorize,47,118596,0.0-46.0,586a92ac-0efc-4e08-a48a-831f6a3b63f1,,1500,250,stim,,"<div class = centerbox><div class = stroop-stim style = ""color:blue"">RED</div></div>","66,71,82",1500,practice,TRUE,66,500,incongruent,blue,red,,,,,-1,-1,poldrack-single-stim,48,119355,0.0-47.0,586a92ac-0efc-4e08-a48a-831f6a3b63f1,,500,500,fixation,,<div class = centerbox><div class = fixation>+</div></div>,none,500,practice,,,,,,,,,,,450,66,poldrack-categorize,49,121869,0.0-48.0,586a92ac-0efc-4e08-a48a-831f6a3b63f1,,1500,250,stim,,"<div class = centerbox><div class = stroop-stim style = ""color:blue"">BLUE</div></div>","66,71,82",1500,practice,TRUE,66,500,congruent,blue,blue,,,,,-1,-1,poldrack-single-stim,50,122629,0.0-49.0,586a92ac-0efc-4e08-a48a-831f6a3b63f1,,500,500,fixation,,<div class = centerbox><div class = fixation>+</div></div>,none,500,practice,,,,,,,,,,,696,82,poldrack-categorize,51,125143,0.0-50.0,586a92ac-0efc-4e08-a48a-831f6a3b63f1,,1500,250,stim,,"<div class = centerbox><div class = stroop-stim style = ""color:red"">BLUE</div></div>","66,71,82",1500,practice,TRUE,82,500,incongruent,red,blue,,,,,3055,13,poldrack-text,52,128454,0.0-52.0,586a92ac-0efc-4e08-a48a-831f6a3b63f1,<div class = centerbox><p class = center-block-text>We will now start the test. Respond exactly like you did during practice.</p><p class = center-block-text>Press <strong>enter</strong> to begin the test.</p></div>,3055,1000,test_intro,,,,,,,,,,,,,,,,-1,-1,poldrack-single-stim,53,129960,0.0-53.0,586a92ac-0efc-4e08-a48a-831f6a3b63f1,,500,500,fixation,,<div class = centerbox><div class = fixation>+</div></div>,none,500,test,,,,,,,,,,,624,66,poldrack-categorize,54,132468,0.0-54.0,586a92ac-0efc-4e08-a48a-831f6a3b63f1,,1500,250,stim,,"<div class = centerbox><div class = stroop-stim style = ""color:blue"">RED</div></div>","66,71,82",1500,test,TRUE,66,500,incongruent,blue,red,,,,,-1,-1,poldrack-single-stim,55,133229,0.0-55.0,586a92ac-0efc-4e08-a48a-831f6a3b63f1,,500,500,fixation,,<div class = centerbox><div class = fixation>+</div></div>,none,500,test,,,,,,,,,,,496,66,poldrack-categorize,56,135742,0.0-56.0,586a92ac-0efc-4e08-a48a-831f6a3b63f1,,1500,250,stim,,"<div class = centerbox><div class = stroop-stim style = ""color:blue"">GREEN</div></div>","66,71,82",1500,test,TRUE,66,500,incongruent,blue,green,,,,,-1,-1,poldrack-single-stim,57,136501,0.0-57.0,586a92ac-0efc-4e08-a48a-831f6a3b63f1,,500,500,fixation,,<div class = centerbox><div class = fixation>+</div></div>,none,500,test,,,,,,,,,,,618,82,poldrack-categorize,58,139010,0.0-58.0,586a92ac-0efc-4e08-a48a-831f6a3b63f1,,1500,250,stim,,"<div class = centerbox><div class = stroop-stim style = ""color:red"">GREEN</div></div>","66,71,82",1500,test,TRUE,82,500,incongruent,red,green,,,,,-1,-1,poldrack-single-stim,59,139770,0.0-59.0,586a92ac-0efc-4e08-a48a-831f6a3b63f1,,500,500,fixation,,<div class = centerbox><div class = fixation>+</div></div>,none,500,test,,,,,,,,,,,564,71,poldrack-categorize,60,142278,0.0-60.0,586a92ac-0efc-4e08-a48a-831f6a3b63f1,,1500,250,stim,,"<div class = centerbox><div class = stroop-stim style = ""color:green"">RED</div></div>","66,71,82",1500,test,TRUE,71,500,incongruent,green,red,,,,,-1,-1,poldrack-single-stim,61,143038,0.0-61.0,586a92ac-0efc-4e08-a48a-831f6a3b63f1,,500,500,fixation,,<div class = centerbox><div class = fixation>+</div></div>,none,500,test,,,,,,,,,,,559,66,poldrack-categorize,62,145552,0.0-62.0,586a92ac-0efc-4e08-a48a-831f6a3b63f1,,1500,250,stim,,"<div class = centerbox><div class = stroop-stim style = ""color:blue"">RED</div></div>","66,71,82",1500,test,TRUE,66,500,incongruent,blue,red,,,,,-1,-1,poldrack-single-stim,63,146306,0.0-63.0,586a92ac-0efc-4e08-a48a-831f6a3b63f1,,500,500,fixation,,<div class = centerbox><div class = fixation>+</div></div>,none,500,test,,,,,,,,,,,513,71,poldrack-categorize,64,148818,0.0-64.0,586a92ac-0efc-4e08-a48a-831f6a3b63f1,,1500,250,stim,,"<div class = centerbox><div class = stroop-stim style = ""color:green"">GREEN</div></div>","66,71,82",1500,test,TRUE,71,500,congruent,green,green,,,,,-1,-1,poldrack-single-stim,65,149574,0.0-65.0,586a92ac-0efc-4e08-a48a-831f6a3b63f1,,500,500,fixation,,<div class = centerbox><div class = fixation>+</div></div>,none,500,test,,,,,,,,,,,517,82,poldrack-categorize,66,152088,0.0-66.0,586a92ac-0efc-4e08-a48a-831f6a3b63f1,,1500,250,stim,,"<div class = centerbox><div class = stroop-stim style = ""color:red"">RED</div></div>","66,71,82",1500,test,TRUE,82,500,congruent,red,red,,,,,-1,-1,poldrack-single-stim,67,152848,0.0-67.0,586a92ac-0efc-4e08-a48a-831f6a3b63f1,,500,500,fixation,,<div class = centerbox><div class = fixation>+</div></div>,none,500,test,,,,,,,,,,,637,66,poldrack-categorize,68,155362,0.0-68.0,586a92ac-0efc-4e08-a48a-831f6a3b63f1,,1500,250,stim,,"<div class = centerbox><div class = stroop-stim style = ""color:blue"">GREEN</div></div>","66,71,82",1500,test,TRUE,66,500,incongruent,blue,green,,,,,-1,-1,poldrack-single-stim,69,156120,0.0-69.0,586a92ac-0efc-4e08-a48a-831f6a3b63f1,,500,500,fixation,,<div class = centerbox><div class = fixation>+</div></div>,none,500,test,,,,,,,,,,,419,71,poldrack-categorize,70,158633,0.0-70.0,586a92ac-0efc-4e08-a48a-831f6a3b63f1,,1500,250,stim,,"<div class = centerbox><div class = stroop-stim style = ""color:green"">RED</div></div>","66,71,82",1500,test,TRUE,71,500,incongruent,green,red,,,,,-1,-1,poldrack-single-stim,71,159390,0.0-71.0,586a92ac-0efc-4e08-a48a-831f6a3b63f1,,500,500,fixation,,<div class = centerbox><div class = fixation>+</div></div>,none,500,test,,,,,,,,,,,597,71,poldrack-categorize,72,161902,0.0-72.0,586a92ac-0efc-4e08-a48a-831f6a3b63f1,,1500,250,stim,,"<div class = centerbox><div class = stroop-stim style = ""color:green"">GREEN</div></div>","66,71,82",1500,test,TRUE,71,500,congruent,green,green,,,,,-1,-1,poldrack-single-stim,73,162658,0.0-73.0,586a92ac-0efc-4e08-a48a-831f6a3b63f1,,500,500,fixation,,<div class = centerbox><div class = fixation>+</div></div>,none,500,test,,,,,,,,,,,588,71,poldrack-categorize,74,165166,0.0-74.0,586a92ac-0efc-4e08-a48a-831f6a3b63f1,,1500,250,stim,,"<div class = centerbox><div class = stroop-stim style = ""color:green"">RED</div></div>","66,71,82",1500,test,TRUE,71,500,incongruent,green,red,,,,,-1,-1,poldrack-single-stim,75,165926,0.0-75.0,586a92ac-0efc-4e08-a48a-831f6a3b63f1,,500,500,fixation,,<div class = centerbox><div class = fixation>+</div></div>,none,500,test,,,,,,,,,,,494,71,poldrack-categorize,76,168438,0.0-76.0,586a92ac-0efc-4e08-a48a-831f6a3b63f1,,1500,250,stim,,"<div class = centerbox><div class = stroop-stim style = ""color:green"">RED</div></div>","66,71,82",1500,test,TRUE,71,500,incongruent,green,red,,,,,-1,-1,poldrack-single-stim,77,169194,0.0-77.0,586a92ac-0efc-4e08-a48a-831f6a3b63f1,,500,500,fixation,,<div class = centerbox><div class = fixation>+</div></div>,none,500,test,,,,,,,,,,,593,82,poldrack-categorize,78,171702,0.0-78.0,586a92ac-0efc-4e08-a48a-831f6a3b63f1,,1500,250,stim,,"<div class = centerbox><div class = stroop-stim style = ""color:red"">GREEN</div></div>","66,71,82",1500,test,TRUE,82,500,incongruent,red,green,,,,,-1,-1,poldrack-single-stim,79,172462,0.0-79.0,586a92ac-0efc-4e08-a48a-831f6a3b63f1,,500,500,fixation,,<div class = centerbox><div class = fixation>+</div></div>,none,500,test,,,,,,,,,,,612,71,poldrack-categorize,80,174975,0.0-80.0,586a92ac-0efc-4e08-a48a-831f6a3b63f1,,1500,250,stim,,"<div class = centerbox><div class = stroop-stim style = ""color:green"">BLUE</div></div>","66,71,82",1500,test,TRUE,71,500,incongruent,green,blue,,,,,-1,-1,poldrack-single-stim,81,175736,0.0-81.0,586a92ac-0efc-4e08-a48a-831f6a3b63f1,,500,500,fixation,,<div class = centerbox><div class = fixation>+</div></div>,none,500,test,,,,,,,,,,,460,66,poldrack-categorize,82,178249,0.0-82.0,586a92ac-0efc-4e08-a48a-831f6a3b63f1,,1500,250,stim,,"<div class = centerbox><div class = stroop-stim style = ""color:blue"">RED</div></div>","66,71,82",1500,test,TRUE,66,500,incongruent,blue,red,,,,,-1,-1,poldrack-single-stim,83,179010,0.0-83.0,586a92ac-0efc-4e08-a48a-831f6a3b63f1,,500,500,fixation,,<div class = centerbox><div class = fixation>+</div></div>,none,500,test,,,,,,,,,,,433,66,poldrack-categorize,84,181523,0.0-84.0,586a92ac-0efc-4e08-a48a-831f6a3b63f1,,1500,250,stim,,"<div class = centerbox><div class = stroop-stim style = ""color:blue"">BLUE</div></div>","66,71,82",1500,test,TRUE,66,500,congruent,blue,blue,,,,,-1,-1,poldrack-single-stim,85,182284,0.0-85.0,586a92ac-0efc-4e08-a48a-831f6a3b63f1,,500,500,fixation,,<div class = centerbox><div class = fixation>+</div></div>,none,500,test,,,,,,,,,,,463,82,poldrack-categorize,86,184797,0.0-86.0,586a92ac-0efc-4e08-a48a-831f6a3b63f1,,1500,250,stim,,"<div class = centerbox><div class = stroop-stim style = ""color:red"">RED</div></div>","66,71,82",1500,test,TRUE,82,500,congruent,red,red,,,,,-1,-1,poldrack-single-stim,87,185559,0.0-87.0,586a92ac-0efc-4e08-a48a-831f6a3b63f1,,500,500,fixation,,<div class = centerbox><div class = fixation>+</div></div>,none,500,test,,,,,,,,,,,484,71,poldrack-categorize,88,188070,0.0-88.0,586a92ac-0efc-4e08-a48a-831f6a3b63f1,,1500,250,stim,,"<div class = centerbox><div class = stroop-stim style = ""color:green"">GREEN</div></div>","66,71,82",1500,test,TRUE,71,500,congruent,green,green,,,,,-1,-1,poldrack-single-stim,89,188831,0.0-89.0,586a92ac-0efc-4e08-a48a-831f6a3b63f1,,500,500,fixation,,<div class = centerbox><div class = fixation>+</div></div>,none,500,test,,,,,,,,,,,692,82,poldrack-categorize,90,191339,0.0-90.0,586a92ac-0efc-4e08-a48a-831f6a3b63f1,,1500,250,stim,,"<div class = centerbox><div class = stroop-stim style = ""color:red"">RED</div></div>","66,71,82",1500,test,TRUE,82,500,congruent,red,red,,,,,-1,-1,poldrack-single-stim,91,192099,0.0-91.0,586a92ac-0efc-4e08-a48a-831f6a3b63f1,,500,500,fixation,,<div class = centerbox><div class = fixation>+</div></div>,none,500,test,,,,,,,,,,,431,66,poldrack-categorize,92,194613,0.0-92.0,586a92ac-0efc-4e08-a48a-831f6a3b63f1,,1500,250,stim,,"<div class = centerbox><div class = stroop-stim style = ""color:blue"">BLUE</div></div>","66,71,82",1500,test,TRUE,66,500,congruent,blue,blue,,,,,-1,-1,poldrack-single-stim,93,195373,0.0-93.0,586a92ac-0efc-4e08-a48a-831f6a3b63f1,,500,500,fixation,,<div class = centerbox><div class = fixation>+</div></div>,none,500,test,,,,,,,,,,,548,71,poldrack-categorize,94,197886,0.0-94.0,586a92ac-0efc-4e08-a48a-831f6a3b63f1,,1500,250,stim,,"<div class = centerbox><div class = stroop-stim style = ""color:green"">BLUE</div></div>","66,71,82",1500,test,TRUE,71,500,incongruent,green,blue,,,,,-1,-1,poldrack-single-stim,95,198647,0.0-95.0,586a92ac-0efc-4e08-a48a-831f6a3b63f1,,500,500,fixation,,<div class = centerbox><div class = fixation>+</div></div>,none,500,test,,,,,,,,,,,507,82,poldrack-categorize,96,201154,0.0-96.0,586a92ac-0efc-4e08-a48a-831f6a3b63f1,,1500,250,stim,,"<div class = centerbox><div class = stroop-stim style = ""color:red"">GREEN</div></div>","66,71,82",1500,test,TRUE,82,500,incongruent,red,green,,,,,-1,-1,poldrack-single-stim,97,201915,0.0-97.0,586a92ac-0efc-4e08-a48a-831f6a3b63f1,,500,500,fixation,,<div class = centerbox><div class = fixation>+</div></div>,none,500,test,,,,,,,,,,,565,71,poldrack-categorize,98,204428,0.0-98.0,586a92ac-0efc-4e08-a48a-831f6a3b63f1,,1500,250,stim,,"<div class = centerbox><div class = stroop-stim style = ""color:green"">RED</div></div>","66,71,82",1500,test,TRUE,71,500,incongruent,green,red,,,,,-1,-1,poldrack-single-stim,99,205187,0.0-99.0,586a92ac-0efc-4e08-a48a-831f6a3b63f1,,500,500,fixation,,<div class = centerbox><div class = fixation>+</div></div>,none,500,test,,,,,,,,,,,511,66,poldrack-categorize,100,207696,0.0-100.0,586a92ac-0efc-4e08-a48a-831f6a3b63f1,,1500,250,stim,,"<div class = centerbox><div class = stroop-stim style = ""color:red"">RED</div></div>","66,71,82",1500,test,FALSE,82,500,congruent,red,red,,,,,-1,-1,poldrack-single-stim,101,208457,0.0-101.0,586a92ac-0efc-4e08-a48a-831f6a3b63f1,,500,500,fixation,,<div class = centerbox><div class = fixation>+</div></div>,none,500,test,,,,,,,,,,,1121,66,poldrack-categorize,102,210970,0.0-102.0,586a92ac-0efc-4e08-a48a-831f6a3b63f1,,1500,250,stim,,"<div class = centerbox><div class = stroop-stim style = ""color:blue"">RED</div></div>","66,71,82",1500,test,TRUE,66,500,incongruent,blue,red,,,,,-1,-1,poldrack-single-stim,103,211731,0.0-103.0,586a92ac-0efc-4e08-a48a-831f6a3b63f1,,500,500,fixation,,<div class = centerbox><div class = fixation>+</div></div>,none,500,test,,,,,,,,,,,830,82,poldrack-categorize,104,214244,0.0-104.0,586a92ac-0efc-4e08-a48a-831f6a3b63f1,,1500,250,stim,,"<div class = centerbox><div class = stroop-stim style = ""color:red"">BLUE</div></div>","66,71,82",1500,test,TRUE,82,500,incongruent,red,blue,,,,,-1,-1,poldrack-single-stim,105,215004,0.0-105.0,586a92ac-0efc-4e08-a48a-831f6a3b63f1,,500,500,fixation,,<div class = centerbox><div class = fixation>+</div></div>,none,500,test,,,,,,,,,,,989,66,poldrack-categorize,106,217518,0.0-106.0,586a92ac-0efc-4e08-a48a-831f6a3b63f1,,1500,250,stim,,"<div class = centerbox><div class = stroop-stim style = ""color:blue"">BLUE</div></div>","66,71,82",1500,test,TRUE,66,500,congruent,blue,blue,,,,,-1,-1,poldrack-single-stim,107,218277,0.0-107.0,586a92ac-0efc-4e08-a48a-831f6a3b63f1,,500,500,fixation,,<div class = centerbox><div class = fixation>+</div></div>,none,500,test,,,,,,,,,,,571,71,poldrack-categorize,108,220791,0.0-108.0,586a92ac-0efc-4e08-a48a-831f6a3b63f1,,1500,250,stim,,"<div class = centerbox><div class = stroop-stim style = ""color:green"">GREEN</div></div>","66,71,82",1500,test,TRUE,71,500,congruent,green,green,,,,,-1,-1,poldrack-single-stim,109,221546,0.0-109.0,586a92ac-0efc-4e08-a48a-831f6a3b63f1,,500,500,fixation,,<div class = centerbox><div class = fixation>+</div></div>,none,500,test,,,,,,,,,,,589,71,poldrack-categorize,110,224059,0.0-110.0,586a92ac-0efc-4e08-a48a-831f6a3b63f1,,1500,250,stim,,"<div class = centerbox><div class = stroop-stim style = ""color:green"">GREEN</div></div>","66,71,82",1500,test,TRUE,71,500,congruent,green,green,,,,,-1,-1,poldrack-single-stim,111,224820,0.0-111.0,586a92ac-0efc-4e08-a48a-831f6a3b63f1,,500,500,fixation,,<div class = centerbox><div class = fixation>+</div></div>,none,500,test,,,,,,,,,,,786,82,poldrack-categorize,112,227333,0.0-112.0,586a92ac-0efc-4e08-a48a-831f6a3b63f1,,1500,250,stim,,"<div class = centerbox><div class = stroop-stim style = ""color:red"">BLUE</div></div>","66,71,82",1500,test,TRUE,82,500,incongruent,red,blue,,,,,-1,-1,poldrack-single-stim,113,228094,0.0-113.0,586a92ac-0efc-4e08-a48a-831f6a3b63f1,,500,500,fixation,,<div class = centerbox><div class = fixation>+</div></div>,none,500,test,,,,,,,,,,,626,71,poldrack-categorize,114,230607,0.0-114.0,586a92ac-0efc-4e08-a48a-831f6a3b63f1,,1500,250,stim,,"<div class = centerbox><div class = stroop-stim style = ""color:green"">BLUE</div></div>","66,71,82",1500,test,TRUE,71,500,incongruent,green,blue,,,,,-1,-1,poldrack-single-stim,115,231368,0.0-115.0,586a92ac-0efc-4e08-a48a-831f6a3b63f1,,500,500,fixation,,<div class = centerbox><div class = fixation>+</div></div>,none,500,test,,,,,,,,,,,536,66,poldrack-categorize,116,233881,0.0-116.0,586a92ac-0efc-4e08-a48a-831f6a3b63f1,,1500,250,stim,,"<div class = centerbox><div class = stroop-stim style = ""color:blue"">BLUE</div></div>","66,71,82",1500,test,TRUE,66,500,congruent,blue,blue,,,,,-1,-1,poldrack-single-stim,117,234641,0.0-117.0,586a92ac-0efc-4e08-a48a-831f6a3b63f1,,500,500,fixation,,<div class = centerbox><div class = fixation>+</div></div>,none,500,test,,,,,,,,,,,581,82,poldrack-categorize,118,237149,0.0-118.0,586a92ac-0efc-4e08-a48a-831f6a3b63f1,,1500,250,stim,,"<div class = centerbox><div class = stroop-stim style = ""color:red"">GREEN</div></div>","66,71,82",1500,test,TRUE,82,500,incongruent,red,green,,,,,-1,-1,poldrack-single-stim,119,237909,0.0-119.0,586a92ac-0efc-4e08-a48a-831f6a3b63f1,,500,500,fixation,,<div class = centerbox><div class = fixation>+</div></div>,none,500,test,,,,,,,,,,,536,82,poldrack-categorize,120,240423,0.0-120.0,586a92ac-0efc-4e08-a48a-831f6a3b63f1,,1500,250,stim,,"<div class = centerbox><div class = stroop-stim style = ""color:red"">BLUE</div></div>","66,71,82",1500,test,TRUE,82,500,incongruent,red,blue,,,,,-1,-1,poldrack-single-stim,121,241183,0.0-121.0,586a92ac-0efc-4e08-a48a-831f6a3b63f1,,500,500,fixation,,<div class = centerbox><div class = fixation>+</div></div>,none,500,test,,,,,,,,,,,657,66,poldrack-categorize,122,243696,0.0-122.0,586a92ac-0efc-4e08-a48a-831f6a3b63f1,,1500,250,stim,,"<div class = centerbox><div class = stroop-stim style = ""color:blue"">BLUE</div></div>","66,71,82",1500,test,TRUE,66,500,congruent,blue,blue,,,,,-1,-1,poldrack-single-stim,123,244457,0.0-123.0,586a92ac-0efc-4e08-a48a-831f6a3b63f1,,500,500,fixation,,<div class = centerbox><div class = fixation>+</div></div>,none,500,test,,,,,,,,,,,878,82,poldrack-categorize,124,246970,0.0-124.0,586a92ac-0efc-4e08-a48a-831f6a3b63f1,,1500,250,stim,,"<div class = centerbox><div class = stroop-stim style = ""color:red"">GREEN</div></div>","66,71,82",1500,test,TRUE,82,500,incongruent,red,green,,,,,-1,-1,poldrack-single-stim,125,247731,0.0-125.0,586a92ac-0efc-4e08-a48a-831f6a3b63f1,,500,500,fixation,,<div class = centerbox><div class = fixation>+</div></div>,none,500,test,,,,,,,,,,,524,71,poldrack-categorize,126,250238,0.0-126.0,586a92ac-0efc-4e08-a48a-831f6a3b63f1,,1500,250,stim,,"<div class = centerbox><div class = stroop-stim style = ""color:green"">GREEN</div></div>","66,71,82",1500,test,TRUE,71,500,congruent,green,green,,,,,-1,-1,poldrack-single-stim,127,250999,0.0-127.0,586a92ac-0efc-4e08-a48a-831f6a3b63f1,,500,500,fixation,,<div class = centerbox><div class = fixation>+</div></div>,none,500,test,,,,,,,,,,,558,82,poldrack-categorize,128,253512,0.0-128.0,586a92ac-0efc-4e08-a48a-831f6a3b63f1,,1500,250,stim,,"<div class = centerbox><div class = stroop-stim style = ""color:red"">RED</div></div>","66,71,82",1500,test,TRUE,82,500,congruent,red,red,,,,,-1,-1,poldrack-single-stim,129,254273,0.0-129.0,586a92ac-0efc-4e08-a48a-831f6a3b63f1,,500,500,fixation,,<div class = centerbox><div class = fixation>+</div></div>,none,500,test,,,,,,,,,,,846,66,poldrack-categorize,130,256786,0.0-130.0,586a92ac-0efc-4e08-a48a-831f6a3b63f1,,1500,250,stim,,"<div class = centerbox><div class = stroop-stim style = ""color:blue"">RED</div></div>","66,71,82",1500,test,TRUE,66,500,incongruent,blue,red,,,,,-1,-1,poldrack-single-stim,131,257547,0.0-131.0,586a92ac-0efc-4e08-a48a-831f6a3b63f1,,500,500,fixation,,<div class = centerbox><div class = fixation>+</div></div>,none,500,test,,,,,,,,,,,516,71,poldrack-categorize,132,260060,0.0-132.0,586a92ac-0efc-4e08-a48a-831f6a3b63f1,,1500,250,stim,,"<div class = centerbox><div class = stroop-stim style = ""color:green"">GREEN</div></div>","66,71,82",1500,test,TRUE,71,500,congruent,green,green,,,,,-1,-1,poldrack-single-stim,133,260820,0.0-133.0,586a92ac-0efc-4e08-a48a-831f6a3b63f1,,500,500,fixation,,<div class = centerbox><div class = fixation>+</div></div>,none,500,test,,,,,,,,,,,624,66,poldrack-categorize,134,263334,0.0-134.0,586a92ac-0efc-4e08-a48a-831f6a3b63f1,,1500,250,stim,,"<div class = centerbox><div class = stroop-stim style = ""color:blue"">RED</div></div>","66,71,82",1500,test,TRUE,66,500,incongruent,blue,red,,,,,-1,-1,poldrack-single-stim,135,264094,0.0-135.0,586a92ac-0efc-4e08-a48a-831f6a3b63f1,,500,500,fixation,,<div class = centerbox><div class = fixation>+</div></div>,none,500,test,,,,,,,,,,,550,71,poldrack-categorize,136,266608,0.0-136.0,586a92ac-0efc-4e08-a48a-831f6a3b63f1,,1500,250,stim,,"<div class = centerbox><div class = stroop-stim style = ""color:green"">GREEN</div></div>","66,71,82",1500,test,TRUE,71,500,congruent,green,green,,,,,-1,-1,poldrack-single-stim,137,267368,0.0-137.0,586a92ac-0efc-4e08-a48a-831f6a3b63f1,,500,500,fixation,,<div class = centerbox><div class = fixation>+</div></div>,none,500,test,,,,,,,,,,,604,71,poldrack-categorize,138,269881,0.0-138.0,586a92ac-0efc-4e08-a48a-831f6a3b63f1,,1500,250,stim,,"<div class = centerbox><div class = stroop-stim style = ""color:green"">GREEN</div></div>","66,71,82",1500,test,TRUE,71,500,congruent,green,green,,,,,-1,-1,poldrack-single-stim,139,270636,0.0-139.0,586a92ac-0efc-4e08-a48a-831f6a3b63f1,,500,500,fixation,,<div class = centerbox><div class = fixation>+</div></div>,none,500,test,,,,,,,,,,,882,82,poldrack-categorize,140,273149,0.0-140.0,586a92ac-0efc-4e08-a48a-831f6a3b63f1,,1500,250,stim,,"<div class = centerbox><div class = stroop-stim style = ""color:red"">BLUE</div></div>","66,71,82",1500,test,TRUE,82,500,incongruent,red,blue,,,,,-1,-1,poldrack-single-stim,141,273910,0.0-141.0,586a92ac-0efc-4e08-a48a-831f6a3b63f1,,500,500,fixation,,<div class = centerbox><div class = fixation>+</div></div>,none,500,test,,,,,,,,,,,695,82,poldrack-categorize,142,276423,0.0-142.0,586a92ac-0efc-4e08-a48a-831f6a3b63f1,,1500,250,stim,,"<div class = centerbox><div class = stroop-stim style = ""color:red"">RED</div></div>","66,71,82",1500,test,TRUE,82,500,congruent,red,red,,,,,-1,-1,poldrack-single-stim,143,277184,0.0-143.0,586a92ac-0efc-4e08-a48a-831f6a3b63f1,,500,500,fixation,,<div class = centerbox><div class = fixation>+</div></div>,none,500,test,,,,,,,,,,,573,82,poldrack-categorize,144,279694,0.0-144.0,586a92ac-0efc-4e08-a48a-831f6a3b63f1,,1500,250,stim,,"<div class = centerbox><div class = stroop-stim style = ""color:red"">BLUE</div></div>","66,71,82",1500,test,TRUE,82,500,incongruent,red,blue,,,,,-1,-1,poldrack-single-stim,145,280446,0.0-145.0,586a92ac-0efc-4e08-a48a-831f6a3b63f1,,500,500,fixation,,<div class = centerbox><div class = fixation>+</div></div>,none,500,test,,,,,,,,,,,549,66,poldrack-categorize,146,282959,0.0-146.0,586a92ac-0efc-4e08-a48a-831f6a3b63f1,,1500,250,stim,,"<div class = centerbox><div class = stroop-stim style = ""color:blue"">BLUE</div></div>","66,71,82",1500,test,TRUE,66,500,congruent,blue,blue,,,,,-1,-1,poldrack-single-stim,147,283720,0.0-147.0,586a92ac-0efc-4e08-a48a-831f6a3b63f1,,500,500,fixation,,<div class = centerbox><div class = fixation>+</div></div>,none,500,test,,,,,,,,,,,485,71,poldrack-categorize,148,286233,0.0-148.0,586a92ac-0efc-4e08-a48a-831f6a3b63f1,,1500,250,stim,,"<div class = centerbox><div class = stroop-stim style = ""color:green"">BLUE</div></div>","66,71,82",1500,test,TRUE,71,500,incongruent,green,blue,,,,,-1,-1,poldrack-single-stim,149,286993,0.0-149.0,586a92ac-0efc-4e08-a48a-831f6a3b63f1,,500,500,fixation,,<div class = centerbox><div class = fixation>+</div></div>,none,500,test,,,,,,,,,,,500,82,poldrack-categorize,150,289507,0.0-150.0,586a92ac-0efc-4e08-a48a-831f6a3b63f1,,1500,250,stim,,"<div class = centerbox><div class = stroop-stim style = ""color:red"">RED</div></div>","66,71,82",1500,test,TRUE,82,500,congruent,red,red,,,,,-1,-1,poldrack-single-stim,151,290267,0.0-151.0,586a92ac-0efc-4e08-a48a-831f6a3b63f1,,500,500,fixation,,<div class = centerbox><div class = fixation>+</div></div>,none,500,test,,,,,,,,,,,618,71,poldrack-categorize,152,292781,0.0-152.0,586a92ac-0efc-4e08-a48a-831f6a3b63f1,,1500,250,stim,,"<div class = centerbox><div class = stroop-stim style = ""color:green"">GREEN</div></div>","66,71,82",1500,test,TRUE,71,500,congruent,green,green,,,,,-1,-1,poldrack-single-stim,153,293537,0.0-153.0,586a92ac-0efc-4e08-a48a-831f6a3b63f1,,500,500,fixation,,<div class = centerbox><div class = fixation>+</div></div>,none,500,test,,,,,,,,,,,796,82,poldrack-categorize,154,296049,0.0-154.0,586a92ac-0efc-4e08-a48a-831f6a3b63f1,,1500,250,stim,,"<div class = centerbox><div class = stroop-stim style = ""color:red"">RED</div></div>","66,71,82",1500,test,TRUE,82,500,congruent,red,red,,,,,-1,-1,poldrack-single-stim,155,296809,0.0-155.0,586a92ac-0efc-4e08-a48a-831f6a3b63f1,,500,500,fixation,,<div class = centerbox><div class = fixation>+</div></div>,none,500,test,,,,,,,,,,,643,71,poldrack-categorize,156,299322,0.0-156.0,586a92ac-0efc-4e08-a48a-831f6a3b63f1,,1500,250,stim,,"<div class = centerbox><div class = stroop-stim style = ""color:green"">RED</div></div>","66,71,82",1500,test,TRUE,71,500,incongruent,green,red,,,,,-1,-1,poldrack-single-stim,157,300083,0.0-157.0,586a92ac-0efc-4e08-a48a-831f6a3b63f1,,500,500,fixation,,<div class = centerbox><div class = fixation>+</div></div>,none,500,test,,,,,,,,,,,689,66,poldrack-categorize,158,302596,0.0-158.0,586a92ac-0efc-4e08-a48a-831f6a3b63f1,,1500,250,stim,,"<div class = centerbox><div class = stroop-stim style = ""color:blue"">GREEN</div></div>","66,71,82",1500,test,TRUE,66,500,incongruent,blue,green,,,,,-1,-1,poldrack-single-stim,159,303355,0.0-159.0,586a92ac-0efc-4e08-a48a-831f6a3b63f1,,500,500,fixation,,<div class = centerbox><div class = fixation>+</div></div>,none,500,test,,,,,,,,,,,607,82,poldrack-categorize,160,305870,0.0-160.0,586a92ac-0efc-4e08-a48a-831f6a3b63f1,,1500,250,stim,,"<div class = centerbox><div class = stroop-stim style = ""color:red"">GREEN</div></div>","66,71,82",1500,test,TRUE,82,500,incongruent,red,green,,,,,-1,-1,poldrack-single-stim,161,306631,0.0-161.0,586a92ac-0efc-4e08-a48a-831f6a3b63f1,,500,500,fixation,,<div class = centerbox><div class = fixation>+</div></div>,none,500,test,,,,,,,,,,,590,82,poldrack-categorize,162,309144,0.0-162.0,586a92ac-0efc-4e08-a48a-831f6a3b63f1,,1500,250,stim,,"<div class = centerbox><div class = stroop-stim style = ""color:red"">RED</div></div>","66,71,82",1500,test,TRUE,82,500,congruent,red,red,,,,,-1,-1,poldrack-single-stim,163,309901,0.0-163.0,586a92ac-0efc-4e08-a48a-831f6a3b63f1,,500,500,fixation,,<div class = centerbox><div class = fixation>+</div></div>,none,500,test,,,,,,,,,,,535,66,poldrack-categorize,164,312412,0.0-164.0,586a92ac-0efc-4e08-a48a-831f6a3b63f1,,1500,250,stim,,"<div class = centerbox><div class = stroop-stim style = ""color:blue"">BLUE</div></div>","66,71,82",1500,test,TRUE,66,500,congruent,blue,blue,,,,,-1,-1,poldrack-single-stim,165,313173,0.0-165.0,586a92ac-0efc-4e08-a48a-831f6a3b63f1,,500,500,fixation,,<div class = centerbox><div class = fixation>+</div></div>,none,500,test,,,,,,,,,,,542,66,poldrack-categorize,166,315686,0.0-166.0,586a92ac-0efc-4e08-a48a-831f6a3b63f1,,1500,250,stim,,"<div class = centerbox><div class = stroop-stim style = ""color:blue"">GREEN</div></div>","66,71,82",1500,test,TRUE,66,500,incongruent,blue,green,,,,,-1,-1,poldrack-single-stim,167,316446,0.0-167.0,586a92ac-0efc-4e08-a48a-831f6a3b63f1,,500,500,fixation,,<div class = centerbox><div class = fixation>+</div></div>,none,500,test,,,,,,,,,,,589,66,poldrack-categorize,168,318959,0.0-168.0,586a92ac-0efc-4e08-a48a-831f6a3b63f1,,1500,250,stim,,"<div class = centerbox><div class = stroop-stim style = ""color:blue"">BLUE</div></div>","66,71,82",1500,test,TRUE,66,500,congruent,blue,blue,,,,,-1,-1,poldrack-single-stim,169,319720,0.0-169.0,586a92ac-0efc-4e08-a48a-831f6a3b63f1,,500,500,fixation,,<div class = centerbox><div class = fixation>+</div></div>,none,500,test,,,,,,,,,,,668,71,poldrack-categorize,170,322229,0.0-170.0,586a92ac-0efc-4e08-a48a-831f6a3b63f1,,1500,250,stim,,"<div class = centerbox><div class = stroop-stim style = ""color:green"">BLUE</div></div>","66,71,82",1500,test,TRUE,71,500,incongruent,green,blue,,,,,-1,-1,poldrack-single-stim,171,322988,0.0-171.0,586a92ac-0efc-4e08-a48a-831f6a3b63f1,,500,500,fixation,,<div class = centerbox><div class = fixation>+</div></div>,none,500,test,,,,,,,,,,,645,66,poldrack-categorize,172,325501,0.0-172.0,586a92ac-0efc-4e08-a48a-831f6a3b63f1,,1500,250,stim,,"<div class = centerbox><div class = stroop-stim style = ""color:blue"">BLUE</div></div>","66,71,82",1500,test,TRUE,66,500,congruent,blue,blue,,,,,-1,-1,poldrack-single-stim,173,326262,0.0-173.0,586a92ac-0efc-4e08-a48a-831f6a3b63f1,,500,500,fixation,,<div class = centerbox><div class = fixation>+</div></div>,none,500,test,,,,,,,,,,,652,71,poldrack-categorize,174,328775,0.0-174.0,586a92ac-0efc-4e08-a48a-831f6a3b63f1,,1500,250,stim,,"<div class = centerbox><div class = stroop-stim style = ""color:green"">GREEN</div></div>","66,71,82",1500,test,TRUE,71,500,congruent,green,green,,,,,-1,-1,poldrack-single-stim,175,329536,0.0-175.0,586a92ac-0efc-4e08-a48a-831f6a3b63f1,,500,500,fixation,,<div class = centerbox><div class = fixation>+</div></div>,none,500,test,,,,,,,,,,,697,71,poldrack-categorize,176,332049,0.0-176.0,586a92ac-0efc-4e08-a48a-831f6a3b63f1,,1500,250,stim,,"<div class = centerbox><div class = stroop-stim style = ""color:green"">BLUE</div></div>","66,71,82",1500,test,TRUE,71,500,incongruent,green,blue,,,,,-1,-1,poldrack-single-stim,177,332809,0.0-177.0,586a92ac-0efc-4e08-a48a-831f6a3b63f1,,500,500,fixation,,<div class = centerbox><div class = fixation>+</div></div>,none,500,test,,,,,,,,,,,569,82,poldrack-categorize,178,335317,0.0-178.0,586a92ac-0efc-4e08-a48a-831f6a3b63f1,,1500,250,stim,,"<div class = centerbox><div class = stroop-stim style = ""color:red"">RED</div></div>","66,71,82",1500,test,TRUE,82,500,congruent,red,red,,,,,-1,-1,poldrack-single-stim,179,336077,0.0-179.0,586a92ac-0efc-4e08-a48a-831f6a3b63f1,,500,500,fixation,,<div class = centerbox><div class = fixation>+</div></div>,none,500,test,,,,,,,,,,,635,66,poldrack-categorize,180,338591,0.0-180.0,586a92ac-0efc-4e08-a48a-831f6a3b63f1,,1500,250,stim,,"<div class = centerbox><div class = stroop-stim style = ""color:blue"">BLUE</div></div>","66,71,82",1500,test,TRUE,66,500,congruent,blue,blue,,,,,-1,-1,poldrack-single-stim,181,339351,0.0-181.0,586a92ac-0efc-4e08-a48a-831f6a3b63f1,,500,500,fixation,,<div class = centerbox><div class = fixation>+</div></div>,none,500,test,,,,,,,,,,,594,71,poldrack-categorize,182,341865,0.0-182.0,586a92ac-0efc-4e08-a48a-831f6a3b63f1,,1500,250,stim,,"<div class = centerbox><div class = stroop-stim style = ""color:green"">GREEN</div></div>","66,71,82",1500,test,TRUE,71,500,congruent,green,green,,,,,-1,-1,poldrack-single-stim,183,342625,0.0-183.0,586a92ac-0efc-4e08-a48a-831f6a3b63f1,,500,500,fixation,,<div class = centerbox><div class = fixation>+</div></div>,none,500,test,,,,,,,,,,,512,82,poldrack-categorize,184,345138,0.0-184.0,586a92ac-0efc-4e08-a48a-831f6a3b63f1,,1500,250,stim,,"<div class = centerbox><div class = stroop-stim style = ""color:red"">RED</div></div>","66,71,82",1500,test,TRUE,82,500,congruent,red,red,,,,,-1,-1,poldrack-single-stim,185,345899,0.0-185.0,586a92ac-0efc-4e08-a48a-831f6a3b63f1,,500,500,fixation,,<div class = centerbox><div class = fixation>+</div></div>,none,500,test,,,,,,,,,,,573,82,poldrack-categorize,186,348412,0.0-186.0,586a92ac-0efc-4e08-a48a-831f6a3b63f1,,1500,250,stim,,"<div class = centerbox><div class = stroop-stim style = ""color:red"">RED</div></div>","66,71,82",1500,test,TRUE,82,500,congruent,red,red,,,,,-1,-1,poldrack-single-stim,187,349173,0.0-187.0,586a92ac-0efc-4e08-a48a-831f6a3b63f1,,500,500,fixation,,<div class = centerbox><div class = fixation>+</div></div>,none,500,test,,,,,,,,,,,596,66,poldrack-categorize,188,351686,0.0-188.0,586a92ac-0efc-4e08-a48a-831f6a3b63f1,,1500,250,stim,,"<div class = centerbox><div class = stroop-stim style = ""color:blue"">BLUE</div></div>","66,71,82",1500,test,TRUE,66,500,congruent,blue,blue,,,,,-1,-1,poldrack-single-stim,189,352447,0.0-189.0,586a92ac-0efc-4e08-a48a-831f6a3b63f1,,500,500,fixation,,<div class = centerbox><div class = fixation>+</div></div>,none,500,test,,,,,,,,,,,515,66,poldrack-categorize,190,354954,0.0-190.0,586a92ac-0efc-4e08-a48a-831f6a3b63f1,,1500,250,stim,,"<div class = centerbox><div class = stroop-stim style = ""color:blue"">BLUE</div></div>","66,71,82",1500,test,TRUE,66,500,congruent,blue,blue,,,,,-1,-1,poldrack-single-stim,191,355715,0.0-191.0,586a92ac-0efc-4e08-a48a-831f6a3b63f1,,500,500,fixation,,<div class = centerbox><div class = fixation>+</div></div>,none,500,test,,,,,,,,,,,509,66,poldrack-categorize,192,358228,0.0-192.0,586a92ac-0efc-4e08-a48a-831f6a3b63f1,,1500,250,stim,,"<div class = centerbox><div class = stroop-stim style = ""color:blue"">BLUE</div></div>","66,71,82",1500,test,TRUE,66,500,congruent,blue,blue,,,,,-1,-1,poldrack-single-stim,193,358988,0.0-193.0,586a92ac-0efc-4e08-a48a-831f6a3b63f1,,500,500,fixation,,<div class = centerbox><div class = fixation>+</div></div>,none,500,test,,,,,,,,,,,557,66,poldrack-categorize,194,361502,0.0-194.0,586a92ac-0efc-4e08-a48a-831f6a3b63f1,,1500,250,stim,,"<div class = centerbox><div class = stroop-stim style = ""color:blue"">BLUE</div></div>","66,71,82",1500,test,TRUE,66,500,congruent,blue,blue,,,,,-1,-1,poldrack-single-stim,195,362262,0.0-195.0,586a92ac-0efc-4e08-a48a-831f6a3b63f1,,500,500,fixation,,<div class = centerbox><div class = fixation>+</div></div>,none,500,test,,,,,,,,,,,554,71,poldrack-categorize,196,364775,0.0-196.0,586a92ac-0efc-4e08-a48a-831f6a3b63f1,,1500,250,stim,,"<div class = centerbox><div class = stroop-stim style = ""color:green"">BLUE</div></div>","66,71,82",1500,test,TRUE,71,500,incongruent,green,blue,,,,,-1,-1,poldrack-single-stim,197,365536,0.0-197.0,586a92ac-0efc-4e08-a48a-831f6a3b63f1,,500,500,fixation,,<div class = centerbox><div class = fixation>+</div></div>,none,500,test,,,,,,,,,,,576,82,poldrack-categorize,198,368048,0.0-198.0,586a92ac-0efc-4e08-a48a-831f6a3b63f1,,1500,250,stim,,"<div class = centerbox><div class = stroop-stim style = ""color:red"">RED</div></div>","66,71,82",1500,test,TRUE,82,500,congruent,red,red,,,,,-1,-1,poldrack-single-stim,199,368804,0.0-199.0,586a92ac-0efc-4e08-a48a-831f6a3b63f1,,500,500,fixation,,<div class = centerbox><div class = fixation>+</div></div>,none,500,test,,,,,,,,,,,594,82,poldrack-categorize,200,371317,0.0-200.0,586a92ac-0efc-4e08-a48a-831f6a3b63f1,,1500,250,stim,,"<div class = centerbox><div class = stroop-stim style = ""color:red"">BLUE</div></div>","66,71,82",1500,test,TRUE,82,500,incongruent,red,blue,,,,,-1,-1,poldrack-single-stim,201,372078,0.0-201.0,586a92ac-0efc-4e08-a48a-831f6a3b63f1,,500,500,fixation,,<div class = centerbox><div class = fixation>+</div></div>,none,500,test,,,,,,,,,,,706,66,poldrack-categorize,202,374591,0.0-202.0,586a92ac-0efc-4e08-a48a-831f6a3b63f1,,1500,250,stim,,"<div class = centerbox><div class = stroop-stim style = ""color:blue"">GREEN</div></div>","66,71,82",1500,test,TRUE,66,500,incongruent,blue,green,,,,,-1,-1,poldrack-single-stim,203,375352,0.0-203.0,586a92ac-0efc-4e08-a48a-831f6a3b63f1,,500,500,fixation,,<div class = centerbox><div class = fixation>+</div></div>,none,500,test,,,,,,,,,,,520,66,poldrack-categorize,204,377861,0.0-204.0,586a92ac-0efc-4e08-a48a-831f6a3b63f1,,1500,250,stim,,"<div class = centerbox><div class = stroop-stim style = ""color:blue"">BLUE</div></div>","66,71,82",1500,test,TRUE,66,500,congruent,blue,blue,,,,,-1,-1,poldrack-single-stim,205,378620,0.0-205.0,586a92ac-0efc-4e08-a48a-831f6a3b63f1,,500,500,fixation,,<div class = centerbox><div class = fixation>+</div></div>,none,500,test,,,,,,,,,,,666,82,poldrack-categorize,206,381133,0.0-206.0,586a92ac-0efc-4e08-a48a-831f6a3b63f1,,1500,250,stim,,"<div class = centerbox><div class = stroop-stim style = ""color:red"">GREEN</div></div>","66,71,82",1500,test,TRUE,82,500,incongruent,red,green,,,,,-1,-1,poldrack-single-stim,207,381893,0.0-207.0,586a92ac-0efc-4e08-a48a-831f6a3b63f1,,500,500,fixation,,<div class = centerbox><div class = fixation>+</div></div>,none,500,test,,,,,,,,,,,546,82,poldrack-categorize,208,384407,0.0-208.0,586a92ac-0efc-4e08-a48a-831f6a3b63f1,,1500,250,stim,,"<div class = centerbox><div class = stroop-stim style = ""color:red"">RED</div></div>","66,71,82",1500,test,TRUE,82,500,congruent,red,red,,,,,-1,-1,poldrack-single-stim,209,385165,0.0-209.0,586a92ac-0efc-4e08-a48a-831f6a3b63f1,,500,500,fixation,,<div class = centerbox><div class = fixation>+</div></div>,none,500,test,,,,,,,,,,,520,82,poldrack-categorize,210,387681,0.0-210.0,586a92ac-0efc-4e08-a48a-831f6a3b63f1,,1500,250,stim,,"<div class = centerbox><div class = stroop-stim style = ""color:red"">RED</div></div>","66,71,82",1500,test,TRUE,82,500,congruent,red,red,,,,,-1,-1,poldrack-single-stim,211,388441,0.0-211.0,586a92ac-0efc-4e08-a48a-831f6a3b63f1,,500,500,fixation,,<div class = centerbox><div class = fixation>+</div></div>,none,500,test,,,,,,,,,,,621,66,poldrack-categorize,212,390948,0.0-212.0,586a92ac-0efc-4e08-a48a-831f6a3b63f1,,1500,250,stim,,"<div class = centerbox><div class = stroop-stim style = ""color:blue"">RED</div></div>","66,71,82",1500,test,TRUE,66,500,incongruent,blue,red,,,,,-1,-1,poldrack-single-stim,213,391709,0.0-213.0,586a92ac-0efc-4e08-a48a-831f6a3b63f1,,500,500,fixation,,<div class = centerbox><div class = fixation>+</div></div>,none,500,test,,,,,,,,,,,519,82,poldrack-categorize,214,394222,0.0-214.0,586a92ac-0efc-4e08-a48a-831f6a3b63f1,,1500,250,stim,,"<div class = centerbox><div class = stroop-stim style = ""color:red"">RED</div></div>","66,71,82",1500,test,TRUE,82,500,congruent,red,red,,,,,-1,-1,poldrack-single-stim,215,394979,0.0-215.0,586a92ac-0efc-4e08-a48a-831f6a3b63f1,,500,500,fixation,,<div class = centerbox><div class = fixation>+</div></div>,none,500,test,,,,,,,,,,,659,71,poldrack-categorize,216,397490,0.0-216.0,586a92ac-0efc-4e08-a48a-831f6a3b63f1,,1500,250,stim,,"<div class = centerbox><div class = stroop-stim style = ""color:green"">GREEN</div></div>","66,71,82",1500,test,TRUE,71,500,congruent,green,green,,,,,-1,-1,poldrack-single-stim,217,398251,0.0-217.0,586a92ac-0efc-4e08-a48a-831f6a3b63f1,,500,500,fixation,,<div class = centerbox><div class = fixation>+</div></div>,none,500,test,,,,,,,,,,,611,82,poldrack-categorize,218,400764,0.0-218.0,586a92ac-0efc-4e08-a48a-831f6a3b63f1,,1500,250,stim,,"<div class = centerbox><div class = stroop-stim style = ""color:red"">GREEN</div></div>","66,71,82",1500,test,TRUE,82,500,incongruent,red,green,,,,,-1,-1,poldrack-single-stim,219,401524,0.0-219.0,586a92ac-0efc-4e08-a48a-831f6a3b63f1,,500,500,fixation,,<div class = centerbox><div class = fixation>+</div></div>,none,500,test,,,,,,,,,,,609,71,poldrack-categorize,220,404038,0.0-220.0,586a92ac-0efc-4e08-a48a-831f6a3b63f1,,1500,250,stim,,"<div class = centerbox><div class = stroop-stim style = ""color:green"">BLUE</div></div>","66,71,82",1500,test,TRUE,71,500,incongruent,green,blue,,,,,-1,-1,poldrack-single-stim,221,404799,0.0-221.0,586a92ac-0efc-4e08-a48a-831f6a3b63f1,,500,500,fixation,,<div class = centerbox><div class = fixation>+</div></div>,none,500,test,,,,,,,,,,,631,66,poldrack-categorize,222,407312,0.0-222.0,586a92ac-0efc-4e08-a48a-831f6a3b63f1,,1500,250,stim,,"<div class = centerbox><div class = stroop-stim style = ""color:blue"">GREEN</div></div>","66,71,82",1500,test,TRUE,66,500,incongruent,blue,green,,,,,-1,-1,poldrack-single-stim,223,408066,0.0-223.0,586a92ac-0efc-4e08-a48a-831f6a3b63f1,,500,500,fixation,,<div class = centerbox><div class = fixation>+</div></div>,none,500,test,,,,,,,,,,,834,66,poldrack-categorize,224,410580,0.0-224.0,586a92ac-0efc-4e08-a48a-831f6a3b63f1,,1500,250,stim,,"<div class = centerbox><div class = stroop-stim style = ""color:blue"">GREEN</div></div>","66,71,82",1500,test,TRUE,66,500,incongruent,blue,green,,,,,-1,-1,poldrack-single-stim,225,411340,0.0-225.0,586a92ac-0efc-4e08-a48a-831f6a3b63f1,,500,500,fixation,,<div class = centerbox><div class = fixation>+</div></div>,none,500,test,,,,,,,,,,,560,71,poldrack-categorize,226,413854,0.0-226.0,586a92ac-0efc-4e08-a48a-831f6a3b63f1,,1500,250,stim,,"<div class = centerbox><div class = stroop-stim style = ""color:green"">GREEN</div></div>","66,71,82",1500,test,TRUE,71,500,congruent,green,green,,,,,-1,-1,poldrack-single-stim,227,414614,0.0-227.0,586a92ac-0efc-4e08-a48a-831f6a3b63f1,,500,500,fixation,,<div class = centerbox><div class = fixation>+</div></div>,none,500,test,,,,,,,,,,,630,71,poldrack-categorize,228,417127,0.0-228.0,586a92ac-0efc-4e08-a48a-831f6a3b63f1,,1500,250,stim,,"<div class = centerbox><div class = stroop-stim style = ""color:green"">RED</div></div>","66,71,82",1500,test,TRUE,71,500,incongruent,green,red,,,,,-1,-1,poldrack-single-stim,229,417888,0.0-229.0,586a92ac-0efc-4e08-a48a-831f6a3b63f1,,500,500,fixation,,<div class = centerbox><div class = fixation>+</div></div>,none,500,test,,,,,,,,,,,765,71,poldrack-categorize,230,420401,0.0-230.0,586a92ac-0efc-4e08-a48a-831f6a3b63f1,,1500,250,stim,,"<div class = centerbox><div class = stroop-stim style = ""color:green"">GREEN</div></div>","66,71,82",1500,test,TRUE,71,500,congruent,green,green,,,,,-1,-1,poldrack-single-stim,231,421160,0.0-231.0,586a92ac-0efc-4e08-a48a-831f6a3b63f1,,500,500,fixation,,<div class = centerbox><div class = fixation>+</div></div>,none,500,test,,,,,,,,,,,619,71,poldrack-categorize,232,423675,0.0-232.0,586a92ac-0efc-4e08-a48a-831f6a3b63f1,,1500,250,stim,,"<div class = centerbox><div class = stroop-stim style = ""color:green"">RED</div></div>","66,71,82",1500,test,TRUE,71,500,incongruent,green,red,,,,,-1,-1,poldrack-single-stim,233,424436,0.0-233.0,586a92ac-0efc-4e08-a48a-831f6a3b63f1,,500,500,fixation,,<div class = centerbox><div class = fixation>+</div></div>,none,500,test,,,,,,,,,,,689,82,poldrack-categorize,234,426949,0.0-234.0,586a92ac-0efc-4e08-a48a-831f6a3b63f1,,1500,250,stim,,"<div class = centerbox><div class = stroop-stim style = ""color:red"">BLUE</div></div>","66,71,82",1500,test,TRUE,82,500,incongruent,red,blue,,,,,-1,-1,poldrack-single-stim,235,427709,0.0-235.0,586a92ac-0efc-4e08-a48a-831f6a3b63f1,,500,500,fixation,,<div class = centerbox><div class = fixation>+</div></div>,none,500,test,,,,,,,,,,,639,66,poldrack-categorize,236,430219,0.0-236.0,586a92ac-0efc-4e08-a48a-831f6a3b63f1,,1500,250,stim,,"<div class = centerbox><div class = stroop-stim style = ""color:blue"">GREEN</div></div>","66,71,82",1500,test,TRUE,66,500,incongruent,blue,green,,,,,-1,-1,poldrack-single-stim,237,430972,0.0-237.0,586a92ac-0efc-4e08-a48a-831f6a3b63f1,,500,500,fixation,,<div class = centerbox><div class = fixation>+</div></div>,none,500,test,,,,,,,,,,,559,82,poldrack-categorize,238,433485,0.0-238.0,586a92ac-0efc-4e08-a48a-831f6a3b63f1,,1500,250,stim,,"<div class = centerbox><div class = stroop-stim style = ""color:red"">BLUE</div></div>","66,71,82",1500,test,TRUE,82,500,incongruent,red,blue,,,,,-1,-1,poldrack-single-stim,239,434240,0.0-239.0,586a92ac-0efc-4e08-a48a-831f6a3b63f1,,500,500,fixation,,<div class = centerbox><div class = fixation>+</div></div>,none,500,test,,,,,,,,,,,597,66,poldrack-categorize,240,436753,0.0-240.0,586a92ac-0efc-4e08-a48a-831f6a3b63f1,,1500,250,stim,,"<div class = centerbox><div class = stroop-stim style = ""color:blue"">BLUE</div></div>","66,71,82",1500,test,TRUE,66,500,congruent,blue,blue,,,,,-1,-1,poldrack-single-stim,241,437513,0.0-241.0,586a92ac-0efc-4e08-a48a-831f6a3b63f1,,500,500,fixation,,<div class = centerbox><div class = fixation>+</div></div>,none,500,test,,,,,,,,,,,538,71,poldrack-categorize,242,440027,0.0-242.0,586a92ac-0efc-4e08-a48a-831f6a3b63f1,,1500,250,stim,,"<div class = centerbox><div class = stroop-stim style = ""color:green"">GREEN</div></div>","66,71,82",1500,test,TRUE,71,500,congruent,green,green,,,,,-1,-1,poldrack-single-stim,243,440787,0.0-243.0,586a92ac-0efc-4e08-a48a-831f6a3b63f1,,500,500,fixation,,<div class = centerbox><div class = fixation>+</div></div>,none,500,test,,,,,,,,,,,695,66,poldrack-categorize,244,443300,0.0-244.0,586a92ac-0efc-4e08-a48a-831f6a3b63f1,,1500,250,stim,,"<div class = centerbox><div class = stroop-stim style = ""color:blue"">RED</div></div>","66,71,82",1500,test,TRUE,66,500,incongruent,blue,red,,,,,43145,,survey-text,245,486706,0.0-246.0,586a92ac-0efc-4e08-a48a-831f6a3b63f1,,,,post task questions,,,,,,,,,,,,"{""Q0"":""determine the color of the word that was displayed"",""Q1"":""""}",,,,2329,13,poldrack-text,246,490040,0.0-247.0,586a92ac-0efc-4e08-a48a-831f6a3b63f1,<div class = centerbox><p class = center-block-text>Thanks for completing this task!</p><p class = center-block-text>Press <strong>enter</strong> to continue.</p></div>,2329,0,end,,,,,,,,,,,,,stroop,TRUE,,2787,13,poldrack-text,247,492863,0.0-248.0-0.0,586a92ac-0efc-4e08-a48a-831f6a3b63f1,<div class = centerbox><p class = center-block-text>Done with instructions. Press <strong>enter</strong> to continue.</p></div>,2787,0,instruction,,,,,,,,,,,,,,,,