rt,key_press,trial_type,trial_index,time_elapsed,internal_node_id,subject,text,block_duration,timing_post_trial,trial_id,view_history,stimulus,possible_responses,stim_duration,exp_stage,stim_place,stim_id,condition,correct,correct_response,responses,exp_id,feedback_duration,stim_color,stim_word,credit_var6164,13,text,0,6166,0.0-0.0,b01de4e2-6a93-4de7-a839-503c61675cc7,,,,,,,,,,,,,,,,,,,,4960,13,poldrack-text,389,735377,0.0-388.0-0.0,b01de4e2-6a93-4de7-a839-503c61675cc7,<div class = centerbox><p class = center-block-text>Done with instructions. Press <strong>enter</strong> to continue.</p></div>,4960,0,instruction,,,,,,,,,,,,,,,,44901,,poldrack-instructions,390,780278,0.0-388.0-1.0,b01de4e2-6a93-4de7-a839-503c61675cc7,,,,instruction,"[{""page_index"":0,""viewing_time"":44901}]",,,,,,,,,,,,,,,5606,13,poldrack-text,391,786892,0.0-389.0,b01de4e2-6a93-4de7-a839-503c61675cc7,"<div class = centerbox><p class = block-text>We will start with a few practice trials. Remember, press the key corresponding to the <strong>ink</strong> color of the word: ""r"" for words colored red, ""b"" for words colored blue, and ""g"" for words colored green.</p><p class = block-text>Press <strong>enter</strong> to begin practice.</p></div>",5606,1000,practice_intro,,,,,,,,,,,,,,,,-1,-1,poldrack-single-stim,392,788398,0.0-390.0,b01de4e2-6a93-4de7-a839-503c61675cc7,,500,500,fixation,,<div class = centerbox><div class = fixation>+</div></div>,none,500,practice,,,,,,,,,,,1332,71,poldrack-categorize,393,790909,0.0-391.0,b01de4e2-6a93-4de7-a839-503c61675cc7,,1500,250,stim,,"<div class = centerbox><div class = stroop-stim style = ""color:green"">GREEN</div></div>","66,71,82",1500,practice,,,congruent,TRUE,71,,,500,green,green,-1,-1,poldrack-single-stim,394,791667,0.0-392.0,b01de4e2-6a93-4de7-a839-503c61675cc7,,500,500,fixation,,<div class = centerbox><div class = fixation>+</div></div>,none,500,practice,,,,,,,,,,,809,82,poldrack-categorize,395,794180,0.0-393.0,b01de4e2-6a93-4de7-a839-503c61675cc7,,1500,250,stim,,"<div class = centerbox><div class = stroop-stim style = ""color:red"">GREEN</div></div>","66,71,82",1500,practice,,,incongruent,TRUE,82,,,500,red,green,-1,-1,poldrack-single-stim,396,794938,0.0-394.0,b01de4e2-6a93-4de7-a839-503c61675cc7,,500,500,fixation,,<div class = centerbox><div class = fixation>+</div></div>,none,500,practice,,,,,,,,,,,453,66,poldrack-categorize,397,797442,0.0-395.0,b01de4e2-6a93-4de7-a839-503c61675cc7,,1500,250,stim,,"<div class = centerbox><div class = stroop-stim style = ""color:blue"">RED</div></div>","66,71,82",1500,practice,,,incongruent,TRUE,66,,,500,blue,red,-1,-1,poldrack-single-stim,398,798202,0.0-396.0,b01de4e2-6a93-4de7-a839-503c61675cc7,,500,500,fixation,,<div class = centerbox><div class = fixation>+</div></div>,none,500,practice,,,,,,,,,,,-1,-1,poldrack-categorize,399,800715,0.0-397.0,b01de4e2-6a93-4de7-a839-503c61675cc7,,1500,250,stim,,"<div class = centerbox><div class = stroop-stim style = ""color:blue"">GREEN</div></div>","66,71,82",1500,practice,,,incongruent,FALSE,66,,,500,blue,green,-1,-1,poldrack-single-stim,400,801471,0.0-398.0,b01de4e2-6a93-4de7-a839-503c61675cc7,,500,500,fixation,,<div class = centerbox><div class = fixation>+</div></div>,none,500,practice,,,,,,,,,,,836,82,poldrack-categorize,401,803984,0.0-399.0,b01de4e2-6a93-4de7-a839-503c61675cc7,,1500,250,stim,,"<div class = centerbox><div class = stroop-stim style = ""color:red"">BLUE</div></div>","66,71,82",1500,practice,,,incongruent,TRUE,82,,,500,red,blue,-1,-1,poldrack-single-stim,402,804744,0.0-400.0,b01de4e2-6a93-4de7-a839-503c61675cc7,,500,500,fixation,,<div class = centerbox><div class = fixation>+</div></div>,none,500,practice,,,,,,,,,,,835,66,poldrack-categorize,403,807258,0.0-401.0,b01de4e2-6a93-4de7-a839-503c61675cc7,,1500,250,stim,,"<div class = centerbox><div class = stroop-stim style = ""color:red"">BLUE</div></div>","66,71,82",1500,practice,,,incongruent,FALSE,82,,,500,red,blue,-1,-1,poldrack-single-stim,404,808018,0.0-402.0,b01de4e2-6a93-4de7-a839-503c61675cc7,,500,500,fixation,,<div class = centerbox><div class = fixation>+</div></div>,none,500,practice,,,,,,,,,,,993,71,poldrack-categorize,405,810531,0.0-403.0,b01de4e2-6a93-4de7-a839-503c61675cc7,,1500,250,stim,,"<div class = centerbox><div class = stroop-stim style = ""color:green"">BLUE</div></div>","66,71,82",1500,practice,,,incongruent,TRUE,71,,,500,green,blue,-1,-1,poldrack-single-stim,406,811292,0.0-404.0,b01de4e2-6a93-4de7-a839-503c61675cc7,,500,500,fixation,,<div class = centerbox><div class = fixation>+</div></div>,none,500,practice,,,,,,,,,,,1130,82,poldrack-categorize,407,813799,0.0-405.0,b01de4e2-6a93-4de7-a839-503c61675cc7,,1500,250,stim,,"<div class = centerbox><div class = stroop-stim style = ""color:red"">RED</div></div>","66,71,82",1500,practice,,,congruent,TRUE,82,,,500,red,red,-1,-1,poldrack-single-stim,408,814556,0.0-406.0,b01de4e2-6a93-4de7-a839-503c61675cc7,,500,500,fixation,,<div class = centerbox><div class = fixation>+</div></div>,none,500,practice,,,,,,,,,,,1238,66,poldrack-categorize,409,817067,0.0-407.0,b01de4e2-6a93-4de7-a839-503c61675cc7,,1500,250,stim,,"<div class = centerbox><div class = stroop-stim style = ""color:blue"">BLUE</div></div>","66,71,82",1500,practice,,,congruent,TRUE,66,,,500,blue,blue,-1,-1,poldrack-single-stim,410,817828,0.0-408.0,b01de4e2-6a93-4de7-a839-503c61675cc7,,500,500,fixation,,<div class = centerbox><div class = fixation>+</div></div>,none,500,practice,,,,,,,,,,,486,71,poldrack-categorize,411,820341,0.0-409.0,b01de4e2-6a93-4de7-a839-503c61675cc7,,1500,250,stim,,"<div class = centerbox><div class = stroop-stim style = ""color:green"">GREEN</div></div>","66,71,82",1500,practice,,,congruent,TRUE,71,,,500,green,green,-1,-1,poldrack-single-stim,412,821102,0.0-410.0,b01de4e2-6a93-4de7-a839-503c61675cc7,,500,500,fixation,,<div class = centerbox><div class = fixation>+</div></div>,none,500,practice,,,,,,,,,,,677,71,poldrack-categorize,413,823615,0.0-411.0,b01de4e2-6a93-4de7-a839-503c61675cc7,,1500,250,stim,,"<div class = centerbox><div class = stroop-stim style = ""color:green"">GREEN</div></div>","66,71,82",1500,practice,,,congruent,TRUE,71,,,500,green,green,-1,-1,poldrack-single-stim,414,824375,0.0-412.0,b01de4e2-6a93-4de7-a839-503c61675cc7,,500,500,fixation,,<div class = centerbox><div class = fixation>+</div></div>,none,500,practice,,,,,,,,,,,780,82,poldrack-categorize,415,826889,0.0-413.0,b01de4e2-6a93-4de7-a839-503c61675cc7,,1500,250,stim,,"<div class = centerbox><div class = stroop-stim style = ""color:red"">RED</div></div>","66,71,82",1500,practice,,,congruent,TRUE,82,,,500,red,red,-1,-1,poldrack-single-stim,416,827649,0.0-414.0,b01de4e2-6a93-4de7-a839-503c61675cc7,,500,500,fixation,,<div class = centerbox><div class = fixation>+</div></div>,none,500,practice,,,,,,,,,,,622,66,poldrack-categorize,417,830162,0.0-415.0,b01de4e2-6a93-4de7-a839-503c61675cc7,,1500,250,stim,,"<div class = centerbox><div class = stroop-stim style = ""color:blue"">BLUE</div></div>","66,71,82",1500,practice,,,congruent,TRUE,66,,,500,blue,blue,-1,-1,poldrack-single-stim,418,830923,0.0-416.0,b01de4e2-6a93-4de7-a839-503c61675cc7,,500,500,fixation,,<div class = centerbox><div class = fixation>+</div></div>,none,500,practice,,,,,,,,,,,790,71,poldrack-categorize,419,833436,0.0-417.0,b01de4e2-6a93-4de7-a839-503c61675cc7,,1500,250,stim,,"<div class = centerbox><div class = stroop-stim style = ""color:green"">GREEN</div></div>","66,71,82",1500,practice,,,congruent,TRUE,71,,,500,green,green,-1,-1,poldrack-single-stim,420,834197,0.0-418.0,b01de4e2-6a93-4de7-a839-503c61675cc7,,500,500,fixation,,<div class = centerbox><div class = fixation>+</div></div>,none,500,practice,,,,,,,,,,,1094,71,poldrack-categorize,421,836710,0.0-419.0,b01de4e2-6a93-4de7-a839-503c61675cc7,,1500,250,stim,,"<div class = centerbox><div class = stroop-stim style = ""color:green"">RED</div></div>","66,71,82",1500,practice,,,incongruent,TRUE,71,,,500,green,red,-1,-1,poldrack-single-stim,422,837471,0.0-420.0,b01de4e2-6a93-4de7-a839-503c61675cc7,,500,500,fixation,,<div class = centerbox><div class = fixation>+</div></div>,none,500,practice,,,,,,,,,,,929,66,poldrack-categorize,423,839978,0.0-421.0,b01de4e2-6a93-4de7-a839-503c61675cc7,,1500,250,stim,,"<div class = centerbox><div class = stroop-stim style = ""color:blue"">RED</div></div>","66,71,82",1500,practice,,,incongruent,TRUE,66,,,500,blue,red,-1,-1,poldrack-single-stim,424,840739,0.0-422.0,b01de4e2-6a93-4de7-a839-503c61675cc7,,500,500,fixation,,<div class = centerbox><div class = fixation>+</div></div>,none,500,practice,,,,,,,,,,,-1,-1,poldrack-categorize,425,843248,0.0-423.0,b01de4e2-6a93-4de7-a839-503c61675cc7,,1500,250,stim,,"<div class = centerbox><div class = stroop-stim style = ""color:red"">GREEN</div></div>","66,71,82",1500,practice,,,incongruent,FALSE,82,,,500,red,green,-1,-1,poldrack-single-stim,426,844007,0.0-424.0,b01de4e2-6a93-4de7-a839-503c61675cc7,,500,500,fixation,,<div class = centerbox><div class = fixation>+</div></div>,none,500,practice,,,,,,,,,,,1252,66,poldrack-categorize,427,846520,0.0-425.0,b01de4e2-6a93-4de7-a839-503c61675cc7,,1500,250,stim,,"<div class = centerbox><div class = stroop-stim style = ""color:green"">RED</div></div>","66,71,82",1500,practice,,,incongruent,FALSE,71,,,500,green,red,-1,-1,poldrack-single-stim,428,847275,0.0-426.0,b01de4e2-6a93-4de7-a839-503c61675cc7,,500,500,fixation,,<div class = centerbox><div class = fixation>+</div></div>,none,500,practice,,,,,,,,,,,-1,-1,poldrack-categorize,429,849788,0.0-427.0,b01de4e2-6a93-4de7-a839-503c61675cc7,,1500,250,stim,,"<div class = centerbox><div class = stroop-stim style = ""color:green"">BLUE</div></div>","66,71,82",1500,practice,,,incongruent,FALSE,71,,,500,green,blue,-1,-1,poldrack-single-stim,430,850548,0.0-428.0,b01de4e2-6a93-4de7-a839-503c61675cc7,,500,500,fixation,,<div class = centerbox><div class = fixation>+</div></div>,none,500,practice,,,,,,,,,,,990,71,poldrack-categorize,431,853062,0.0-429.0,b01de4e2-6a93-4de7-a839-503c61675cc7,,1500,250,stim,,"<div class = centerbox><div class = stroop-stim style = ""color:blue"">BLUE</div></div>","66,71,82",1500,practice,,,congruent,FALSE,66,,,500,blue,blue,-1,-1,poldrack-single-stim,432,853822,0.0-430.0,b01de4e2-6a93-4de7-a839-503c61675cc7,,500,500,fixation,,<div class = centerbox><div class = fixation>+</div></div>,none,500,practice,,,,,,,,,,,549,66,poldrack-categorize,433,856335,0.0-431.0,b01de4e2-6a93-4de7-a839-503c61675cc7,,1500,250,stim,,"<div class = centerbox><div class = stroop-stim style = ""color:blue"">BLUE</div></div>","66,71,82",1500,practice,,,congruent,TRUE,66,,,500,blue,blue,-1,-1,poldrack-single-stim,434,857090,0.0-432.0,b01de4e2-6a93-4de7-a839-503c61675cc7,,500,500,fixation,,<div class = centerbox><div class = fixation>+</div></div>,none,500,practice,,,,,,,,,,,667,82,poldrack-categorize,435,859603,0.0-433.0,b01de4e2-6a93-4de7-a839-503c61675cc7,,1500,250,stim,,"<div class = centerbox><div class = stroop-stim style = ""color:red"">RED</div></div>","66,71,82",1500,practice,,,congruent,TRUE,82,,,500,red,red,-1,-1,poldrack-single-stim,436,860364,0.0-434.0,b01de4e2-6a93-4de7-a839-503c61675cc7,,500,500,fixation,,<div class = centerbox><div class = fixation>+</div></div>,none,500,practice,,,,,,,,,,,1117,82,poldrack-categorize,437,862877,0.0-435.0,b01de4e2-6a93-4de7-a839-503c61675cc7,,1500,250,stim,,"<div class = centerbox><div class = stroop-stim style = ""color:red"">RED</div></div>","66,71,82",1500,practice,,,congruent,TRUE,82,,,500,red,red,-1,-1,poldrack-single-stim,438,863638,0.0-436.0,b01de4e2-6a93-4de7-a839-503c61675cc7,,500,500,fixation,,<div class = centerbox><div class = fixation>+</div></div>,none,500,practice,,,,,,,,,,,825,66,poldrack-categorize,439,866151,0.0-437.0,b01de4e2-6a93-4de7-a839-503c61675cc7,,1500,250,stim,,"<div class = centerbox><div class = stroop-stim style = ""color:blue"">GREEN</div></div>","66,71,82",1500,practice,,,incongruent,TRUE,66,,,500,blue,green,7834,13,poldrack-text,440,874238,0.0-439.0,b01de4e2-6a93-4de7-a839-503c61675cc7,<div class = centerbox><p class = center-block-text>We will now start the test. Respond exactly like you did during practice.</p><p class = center-block-text>Press <strong>enter</strong> to begin the test.</p></div>,7834,1000,test_intro,,,,,,,,,,,,,,,,-1,-1,poldrack-single-stim,441,875743,0.0-440.0,b01de4e2-6a93-4de7-a839-503c61675cc7,,500,500,fixation,,<div class = centerbox><div class = fixation>+</div></div>,none,500,test,,,,,,,,,,,817,71,poldrack-categorize,442,878254,0.0-441.0,b01de4e2-6a93-4de7-a839-503c61675cc7,,1500,250,stim,,"<div class = centerbox><div class = stroop-stim style = ""color:green"">GREEN</div></div>","66,71,82",1500,test,,,congruent,TRUE,71,,,500,green,green,-1,-1,poldrack-single-stim,443,879014,0.0-442.0,b01de4e2-6a93-4de7-a839-503c61675cc7,,500,500,fixation,,<div class = centerbox><div class = fixation>+</div></div>,none,500,test,,,,,,,,,,,808,71,poldrack-categorize,444,881522,0.0-443.0,b01de4e2-6a93-4de7-a839-503c61675cc7,,1500,250,stim,,"<div class = centerbox><div class = stroop-stim style = ""color:green"">GREEN</div></div>","66,71,82",1500,test,,,congruent,TRUE,71,,,500,green,green,-1,-1,poldrack-single-stim,445,882280,0.0-444.0,b01de4e2-6a93-4de7-a839-503c61675cc7,,500,500,fixation,,<div class = centerbox><div class = fixation>+</div></div>,none,500,test,,,,,,,,,,,590,82,poldrack-categorize,446,884790,0.0-445.0,b01de4e2-6a93-4de7-a839-503c61675cc7,,1500,250,stim,,"<div class = centerbox><div class = stroop-stim style = ""color:red"">RED</div></div>","66,71,82",1500,test,,,congruent,TRUE,82,,,500,red,red,-1,-1,poldrack-single-stim,447,885550,0.0-446.0,b01de4e2-6a93-4de7-a839-503c61675cc7,,500,500,fixation,,<div class = centerbox><div class = fixation>+</div></div>,none,500,test,,,,,,,,,,,650,66,poldrack-categorize,448,888060,0.0-447.0,b01de4e2-6a93-4de7-a839-503c61675cc7,,1500,250,stim,,"<div class = centerbox><div class = stroop-stim style = ""color:blue"">RED</div></div>","66,71,82",1500,test,,,incongruent,TRUE,66,,,500,blue,red,-1,-1,poldrack-single-stim,449,888818,0.0-448.0,b01de4e2-6a93-4de7-a839-503c61675cc7,,500,500,fixation,,<div class = centerbox><div class = fixation>+</div></div>,none,500,test,,,,,,,,,,,733,66,poldrack-categorize,450,891331,0.0-449.0,b01de4e2-6a93-4de7-a839-503c61675cc7,,1500,250,stim,,"<div class = centerbox><div class = stroop-stim style = ""color:blue"">BLUE</div></div>","66,71,82",1500,test,,,congruent,TRUE,66,,,500,blue,blue,-1,-1,poldrack-single-stim,451,892092,0.0-450.0,b01de4e2-6a93-4de7-a839-503c61675cc7,,500,500,fixation,,<div class = centerbox><div class = fixation>+</div></div>,none,500,test,,,,,,,,,,,925,82,poldrack-categorize,452,894605,0.0-451.0,b01de4e2-6a93-4de7-a839-503c61675cc7,,1500,250,stim,,"<div class = centerbox><div class = stroop-stim style = ""color:blue"">RED</div></div>","66,71,82",1500,test,,,incongruent,FALSE,66,,,500,blue,red,-1,-1,poldrack-single-stim,453,895366,0.0-452.0,b01de4e2-6a93-4de7-a839-503c61675cc7,,500,500,fixation,,<div class = centerbox><div class = fixation>+</div></div>,none,500,test,,,,,,,,,,,1182,82,poldrack-categorize,454,897879,0.0-453.0,b01de4e2-6a93-4de7-a839-503c61675cc7,,1500,250,stim,,"<div class = centerbox><div class = stroop-stim style = ""color:red"">BLUE</div></div>","66,71,82",1500,test,,,incongruent,TRUE,82,,,500,red,blue,-1,-1,poldrack-single-stim,455,898640,0.0-454.0,b01de4e2-6a93-4de7-a839-503c61675cc7,,500,500,fixation,,<div class = centerbox><div class = fixation>+</div></div>,none,500,test,,,,,,,,,,,744,82,poldrack-categorize,456,901153,0.0-455.0,b01de4e2-6a93-4de7-a839-503c61675cc7,,1500,250,stim,,"<div class = centerbox><div class = stroop-stim style = ""color:red"">BLUE</div></div>","66,71,82",1500,test,,,incongruent,TRUE,82,,,500,red,blue,-1,-1,poldrack-single-stim,457,901913,0.0-456.0,b01de4e2-6a93-4de7-a839-503c61675cc7,,500,500,fixation,,<div class = centerbox><div class = fixation>+</div></div>,none,500,test,,,,,,,,,,,960,71,poldrack-categorize,458,904427,0.0-457.0,b01de4e2-6a93-4de7-a839-503c61675cc7,,1500,250,stim,,"<div class = centerbox><div class = stroop-stim style = ""color:green"">BLUE</div></div>","66,71,82",1500,test,,,incongruent,TRUE,71,,,500,green,blue,-1,-1,poldrack-single-stim,459,905187,0.0-458.0,b01de4e2-6a93-4de7-a839-503c61675cc7,,500,500,fixation,,<div class = centerbox><div class = fixation>+</div></div>,none,500,test,,,,,,,,,,,891,71,poldrack-categorize,460,907701,0.0-459.0,b01de4e2-6a93-4de7-a839-503c61675cc7,,1500,250,stim,,"<div class = centerbox><div class = stroop-stim style = ""color:green"">RED</div></div>","66,71,82",1500,test,,,incongruent,TRUE,71,,,500,green,red,-1,-1,poldrack-single-stim,461,908461,0.0-460.0,b01de4e2-6a93-4de7-a839-503c61675cc7,,500,500,fixation,,<div class = centerbox><div class = fixation>+</div></div>,none,500,test,,,,,,,,,,,777,71,poldrack-categorize,462,910974,0.0-461.0,b01de4e2-6a93-4de7-a839-503c61675cc7,,1500,250,stim,,"<div class = centerbox><div class = stroop-stim style = ""color:green"">BLUE</div></div>","66,71,82",1500,test,,,incongruent,TRUE,71,,,500,green,blue,-1,-1,poldrack-single-stim,463,911735,0.0-462.0,b01de4e2-6a93-4de7-a839-503c61675cc7,,500,500,fixation,,<div class = centerbox><div class = fixation>+</div></div>,none,500,test,,,,,,,,,,,790,71,poldrack-categorize,464,914245,0.0-463.0,b01de4e2-6a93-4de7-a839-503c61675cc7,,1500,250,stim,,"<div class = centerbox><div class = stroop-stim style = ""color:green"">GREEN</div></div>","66,71,82",1500,test,,,congruent,TRUE,71,,,500,green,green,-1,-1,poldrack-single-stim,465,915003,0.0-464.0,b01de4e2-6a93-4de7-a839-503c61675cc7,,500,500,fixation,,<div class = centerbox><div class = fixation>+</div></div>,none,500,test,,,,,,,,,,,985,82,poldrack-categorize,466,917513,0.0-465.0,b01de4e2-6a93-4de7-a839-503c61675cc7,,1500,250,stim,,"<div class = centerbox><div class = stroop-stim style = ""color:red"">RED</div></div>","66,71,82",1500,test,,,congruent,TRUE,82,,,500,red,red,-1,-1,poldrack-single-stim,467,918271,0.0-466.0,b01de4e2-6a93-4de7-a839-503c61675cc7,,500,500,fixation,,<div class = centerbox><div class = fixation>+</div></div>,none,500,test,,,,,,,,,,,1058,66,poldrack-categorize,468,920784,0.0-467.0,b01de4e2-6a93-4de7-a839-503c61675cc7,,1500,250,stim,,"<div class = centerbox><div class = stroop-stim style = ""color:blue"">RED</div></div>","66,71,82",1500,test,,,incongruent,TRUE,66,,,500,blue,red,-1,-1,poldrack-single-stim,469,921542,0.0-468.0,b01de4e2-6a93-4de7-a839-503c61675cc7,,500,500,fixation,,<div class = centerbox><div class = fixation>+</div></div>,none,500,test,,,,,,,,,,,1477,82,poldrack-categorize,470,924058,0.0-469.0,b01de4e2-6a93-4de7-a839-503c61675cc7,,1500,250,stim,,"<div class = centerbox><div class = stroop-stim style = ""color:red"">GREEN</div></div>","66,71,82",1500,test,,,incongruent,TRUE,82,,,500,red,green,-1,-1,poldrack-single-stim,471,924818,0.0-470.0,b01de4e2-6a93-4de7-a839-503c61675cc7,,500,500,fixation,,<div class = centerbox><div class = fixation>+</div></div>,none,500,test,,,,,,,,,,,1140,82,poldrack-categorize,472,927332,0.0-471.0,b01de4e2-6a93-4de7-a839-503c61675cc7,,1500,250,stim,,"<div class = centerbox><div class = stroop-stim style = ""color:red"">RED</div></div>","66,71,82",1500,test,,,congruent,TRUE,82,,,500,red,red,-1,-1,poldrack-single-stim,473,928092,0.0-472.0,b01de4e2-6a93-4de7-a839-503c61675cc7,,500,500,fixation,,<div class = centerbox><div class = fixation>+</div></div>,none,500,test,,,,,,,,,,,690,82,poldrack-categorize,474,930605,0.0-473.0,b01de4e2-6a93-4de7-a839-503c61675cc7,,1500,250,stim,,"<div class = centerbox><div class = stroop-stim style = ""color:red"">RED</div></div>","66,71,82",1500,test,,,congruent,TRUE,82,,,500,red,red,-1,-1,poldrack-single-stim,475,931366,0.0-474.0,b01de4e2-6a93-4de7-a839-503c61675cc7,,500,500,fixation,,<div class = centerbox><div class = fixation>+</div></div>,none,500,test,,,,,,,,,,,1229,71,poldrack-categorize,476,933879,0.0-475.0,b01de4e2-6a93-4de7-a839-503c61675cc7,,1500,250,stim,,"<div class = centerbox><div class = stroop-stim style = ""color:green"">RED</div></div>","66,71,82",1500,test,,,incongruent,TRUE,71,,,500,green,red,-1,-1,poldrack-single-stim,477,934640,0.0-476.0,b01de4e2-6a93-4de7-a839-503c61675cc7,,500,500,fixation,,<div class = centerbox><div class = fixation>+</div></div>,none,500,test,,,,,,,,,,,813,66,poldrack-categorize,478,937147,0.0-477.0,b01de4e2-6a93-4de7-a839-503c61675cc7,,1500,250,stim,,"<div class = centerbox><div class = stroop-stim style = ""color:blue"">BLUE</div></div>","66,71,82",1500,test,,,congruent,TRUE,66,,,500,blue,blue,-1,-1,poldrack-single-stim,479,937908,0.0-478.0,b01de4e2-6a93-4de7-a839-503c61675cc7,,500,500,fixation,,<div class = centerbox><div class = fixation>+</div></div>,none,500,test,,,,,,,,,,,1020,82,poldrack-categorize,480,940421,0.0-479.0,b01de4e2-6a93-4de7-a839-503c61675cc7,,1500,250,stim,,"<div class = centerbox><div class = stroop-stim style = ""color:blue"">RED</div></div>","66,71,82",1500,test,,,incongruent,FALSE,66,,,500,blue,red,-1,-1,poldrack-single-stim,481,941182,0.0-480.0,b01de4e2-6a93-4de7-a839-503c61675cc7,,500,500,fixation,,<div class = centerbox><div class = fixation>+</div></div>,none,500,test,,,,,,,,,,,1224,66,poldrack-categorize,482,943695,0.0-481.0,b01de4e2-6a93-4de7-a839-503c61675cc7,,1500,250,stim,,"<div class = centerbox><div class = stroop-stim style = ""color:blue"">GREEN</div></div>","66,71,82",1500,test,,,incongruent,TRUE,66,,,500,blue,green,-1,-1,poldrack-single-stim,483,944455,0.0-482.0,b01de4e2-6a93-4de7-a839-503c61675cc7,,500,500,fixation,,<div class = centerbox><div class = fixation>+</div></div>,none,500,test,,,,,,,,,,,1426,71,poldrack-categorize,484,946969,0.0-483.0,b01de4e2-6a93-4de7-a839-503c61675cc7,,1500,250,stim,,"<div class = centerbox><div class = stroop-stim style = ""color:green"">GREEN</div></div>","66,71,82",1500,test,,,congruent,TRUE,71,,,500,green,green,-1,-1,poldrack-single-stim,485,947729,0.0-484.0,b01de4e2-6a93-4de7-a839-503c61675cc7,,500,500,fixation,,<div class = centerbox><div class = fixation>+</div></div>,none,500,test,,,,,,,,,,,639,66,poldrack-categorize,486,950242,0.0-485.0,b01de4e2-6a93-4de7-a839-503c61675cc7,,1500,250,stim,,"<div class = centerbox><div class = stroop-stim style = ""color:blue"">BLUE</div></div>","66,71,82",1500,test,,,congruent,TRUE,66,,,500,blue,blue,-1,-1,poldrack-single-stim,487,951003,0.0-486.0,b01de4e2-6a93-4de7-a839-503c61675cc7,,500,500,fixation,,<div class = centerbox><div class = fixation>+</div></div>,none,500,test,,,,,,,,,,,606,82,poldrack-categorize,488,953516,0.0-487.0,b01de4e2-6a93-4de7-a839-503c61675cc7,,1500,250,stim,,"<div class = centerbox><div class = stroop-stim style = ""color:red"">RED</div></div>","66,71,82",1500,test,,,congruent,TRUE,82,,,500,red,red,-1,-1,poldrack-single-stim,489,954271,0.0-488.0,b01de4e2-6a93-4de7-a839-503c61675cc7,,500,500,fixation,,<div class = centerbox><div class = fixation>+</div></div>,none,500,test,,,,,,,,,,,676,71,poldrack-categorize,490,956784,0.0-489.0,b01de4e2-6a93-4de7-a839-503c61675cc7,,1500,250,stim,,"<div class = centerbox><div class = stroop-stim style = ""color:green"">GREEN</div></div>","66,71,82",1500,test,,,congruent,TRUE,71,,,500,green,green,-1,-1,poldrack-single-stim,491,957545,0.0-490.0,b01de4e2-6a93-4de7-a839-503c61675cc7,,500,500,fixation,,<div class = centerbox><div class = fixation>+</div></div>,none,500,test,,,,,,,,,,,1128,66,poldrack-categorize,492,960058,0.0-491.0,b01de4e2-6a93-4de7-a839-503c61675cc7,,1500,250,stim,,"<div class = centerbox><div class = stroop-stim style = ""color:blue"">GREEN</div></div>","66,71,82",1500,test,,,incongruent,TRUE,66,,,500,blue,green,-1,-1,poldrack-single-stim,493,960819,0.0-492.0,b01de4e2-6a93-4de7-a839-503c61675cc7,,500,500,fixation,,<div class = centerbox><div class = fixation>+</div></div>,none,500,test,,,,,,,,,,,1006,82,poldrack-categorize,494,963332,0.0-493.0,b01de4e2-6a93-4de7-a839-503c61675cc7,,1500,250,stim,,"<div class = centerbox><div class = stroop-stim style = ""color:red"">GREEN</div></div>","66,71,82",1500,test,,,incongruent,TRUE,82,,,500,red,green,-1,-1,poldrack-single-stim,495,964089,0.0-494.0,b01de4e2-6a93-4de7-a839-503c61675cc7,,500,500,fixation,,<div class = centerbox><div class = fixation>+</div></div>,none,500,test,,,,,,,,,,,938,66,poldrack-categorize,496,966600,0.0-495.0,b01de4e2-6a93-4de7-a839-503c61675cc7,,1500,250,stim,,"<div class = centerbox><div class = stroop-stim style = ""color:blue"">GREEN</div></div>","66,71,82",1500,test,,,incongruent,TRUE,66,,,500,blue,green,-1,-1,poldrack-single-stim,497,967360,0.0-496.0,b01de4e2-6a93-4de7-a839-503c61675cc7,,500,500,fixation,,<div class = centerbox><div class = fixation>+</div></div>,none,500,test,,,,,,,,,,,1056,66,poldrack-categorize,498,969874,0.0-497.0,b01de4e2-6a93-4de7-a839-503c61675cc7,,1500,250,stim,,"<div class = centerbox><div class = stroop-stim style = ""color:blue"">RED</div></div>","66,71,82",1500,test,,,incongruent,TRUE,66,,,500,blue,red,-1,-1,poldrack-single-stim,499,970634,0.0-498.0,b01de4e2-6a93-4de7-a839-503c61675cc7,,500,500,fixation,,<div class = centerbox><div class = fixation>+</div></div>,none,500,test,,,,,,,,,,,1022,66,poldrack-categorize,500,973148,0.0-499.0,b01de4e2-6a93-4de7-a839-503c61675cc7,,1500,250,stim,,"<div class = centerbox><div class = stroop-stim style = ""color:blue"">BLUE</div></div>","66,71,82",1500,test,,,congruent,TRUE,66,,,500,blue,blue,-1,-1,poldrack-single-stim,501,973902,0.0-500.0,b01de4e2-6a93-4de7-a839-503c61675cc7,,500,500,fixation,,<div class = centerbox><div class = fixation>+</div></div>,none,500,test,,,,,,,,,,,835,82,poldrack-categorize,502,976418,0.0-501.0,b01de4e2-6a93-4de7-a839-503c61675cc7,,1500,250,stim,,"<div class = centerbox><div class = stroop-stim style = ""color:red"">BLUE</div></div>","66,71,82",1500,test,,,incongruent,TRUE,82,,,500,red,blue,-1,-1,poldrack-single-stim,503,977176,0.0-502.0,b01de4e2-6a93-4de7-a839-503c61675cc7,,500,500,fixation,,<div class = centerbox><div class = fixation>+</div></div>,none,500,test,,,,,,,,,,,778,82,poldrack-categorize,504,979689,0.0-503.0,b01de4e2-6a93-4de7-a839-503c61675cc7,,1500,250,stim,,"<div class = centerbox><div class = stroop-stim style = ""color:red"">RED</div></div>","66,71,82",1500,test,,,congruent,TRUE,82,,,500,red,red,-1,-1,poldrack-single-stim,505,980450,0.0-504.0,b01de4e2-6a93-4de7-a839-503c61675cc7,,500,500,fixation,,<div class = centerbox><div class = fixation>+</div></div>,none,500,test,,,,,,,,,,,780,66,poldrack-categorize,506,982963,0.0-505.0,b01de4e2-6a93-4de7-a839-503c61675cc7,,1500,250,stim,,"<div class = centerbox><div class = stroop-stim style = ""color:blue"">BLUE</div></div>","66,71,82",1500,test,,,congruent,TRUE,66,,,500,blue,blue,-1,-1,poldrack-single-stim,507,983724,0.0-506.0,b01de4e2-6a93-4de7-a839-503c61675cc7,,500,500,fixation,,<div class = centerbox><div class = fixation>+</div></div>,none,500,test,,,,,,,,,,,1264,82,poldrack-categorize,508,986237,0.0-507.0,b01de4e2-6a93-4de7-a839-503c61675cc7,,1500,250,stim,,"<div class = centerbox><div class = stroop-stim style = ""color:red"">GREEN</div></div>","66,71,82",1500,test,,,incongruent,TRUE,82,,,500,red,green,-1,-1,poldrack-single-stim,509,986997,0.0-508.0,b01de4e2-6a93-4de7-a839-503c61675cc7,,500,500,fixation,,<div class = centerbox><div class = fixation>+</div></div>,none,500,test,,,,,,,,,,,-1,-1,poldrack-categorize,510,989511,0.0-509.0,b01de4e2-6a93-4de7-a839-503c61675cc7,,1500,250,stim,,"<div class = centerbox><div class = stroop-stim style = ""color:green"">GREEN</div></div>","66,71,82",1500,test,,,congruent,FALSE,71,,,500,green,green,-1,-1,poldrack-single-stim,511,990271,0.0-510.0,b01de4e2-6a93-4de7-a839-503c61675cc7,,500,500,fixation,,<div class = centerbox><div class = fixation>+</div></div>,none,500,test,,,,,,,,,,,1498,71,poldrack-categorize,512,992782,0.0-511.0,b01de4e2-6a93-4de7-a839-503c61675cc7,,1500,250,stim,,"<div class = centerbox><div class = stroop-stim style = ""color:green"">RED</div></div>","66,71,82",1500,test,,,incongruent,TRUE,71,,,500,green,red,-1,-1,poldrack-single-stim,513,993539,0.0-512.0,b01de4e2-6a93-4de7-a839-503c61675cc7,,500,500,fixation,,<div class = centerbox><div class = fixation>+</div></div>,none,500,test,,,,,,,,,,,728,66,poldrack-categorize,514,996052,0.0-513.0,b01de4e2-6a93-4de7-a839-503c61675cc7,,1500,250,stim,,"<div class = centerbox><div class = stroop-stim style = ""color:blue"">BLUE</div></div>","66,71,82",1500,test,,,congruent,TRUE,66,,,500,blue,blue,-1,-1,poldrack-single-stim,515,996813,0.0-514.0,b01de4e2-6a93-4de7-a839-503c61675cc7,,500,500,fixation,,<div class = centerbox><div class = fixation>+</div></div>,none,500,test,,,,,,,,,,,595,66,poldrack-categorize,516,999326,0.0-515.0,b01de4e2-6a93-4de7-a839-503c61675cc7,,1500,250,stim,,"<div class = centerbox><div class = stroop-stim style = ""color:blue"">BLUE</div></div>","66,71,82",1500,test,,,congruent,TRUE,66,,,500,blue,blue,-1,-1,poldrack-single-stim,517,1000087,0.0-516.0,b01de4e2-6a93-4de7-a839-503c61675cc7,,500,500,fixation,,<div class = centerbox><div class = fixation>+</div></div>,none,500,test,,,,,,,,,,,762,82,poldrack-categorize,518,1002600,0.0-517.0,b01de4e2-6a93-4de7-a839-503c61675cc7,,1500,250,stim,,"<div class = centerbox><div class = stroop-stim style = ""color:red"">BLUE</div></div>","66,71,82",1500,test,,,incongruent,TRUE,82,,,500,red,blue,-1,-1,poldrack-single-stim,519,1003361,0.0-518.0,b01de4e2-6a93-4de7-a839-503c61675cc7,,500,500,fixation,,<div class = centerbox><div class = fixation>+</div></div>,none,500,test,,,,,,,,,,,854,82,poldrack-categorize,520,1005874,0.0-519.0,b01de4e2-6a93-4de7-a839-503c61675cc7,,1500,250,stim,,"<div class = centerbox><div class = stroop-stim style = ""color:red"">RED</div></div>","66,71,82",1500,test,,,congruent,TRUE,82,,,500,red,red,-1,-1,poldrack-single-stim,521,1006630,0.0-520.0,b01de4e2-6a93-4de7-a839-503c61675cc7,,500,500,fixation,,<div class = centerbox><div class = fixation>+</div></div>,none,500,test,,,,,,,,,,,746,82,poldrack-categorize,522,1009142,0.0-521.0,b01de4e2-6a93-4de7-a839-503c61675cc7,,1500,250,stim,,"<div class = centerbox><div class = stroop-stim style = ""color:red"">BLUE</div></div>","66,71,82",1500,test,,,incongruent,TRUE,82,,,500,red,blue,-1,-1,poldrack-single-stim,523,1009902,0.0-522.0,b01de4e2-6a93-4de7-a839-503c61675cc7,,500,500,fixation,,<div class = centerbox><div class = fixation>+</div></div>,none,500,test,,,,,,,,,,,646,82,poldrack-categorize,524,1012416,0.0-523.0,b01de4e2-6a93-4de7-a839-503c61675cc7,,1500,250,stim,,"<div class = centerbox><div class = stroop-stim style = ""color:red"">BLUE</div></div>","66,71,82",1500,test,,,incongruent,TRUE,82,,,500,red,blue,-1,-1,poldrack-single-stim,525,1013176,0.0-524.0,b01de4e2-6a93-4de7-a839-503c61675cc7,,500,500,fixation,,<div class = centerbox><div class = fixation>+</div></div>,none,500,test,,,,,,,,,,,994,71,poldrack-categorize,526,1015689,0.0-525.0,b01de4e2-6a93-4de7-a839-503c61675cc7,,1500,250,stim,,"<div class = centerbox><div class = stroop-stim style = ""color:green"">BLUE</div></div>","66,71,82",1500,test,,,incongruent,TRUE,71,,,500,green,blue,-1,-1,poldrack-single-stim,527,1016450,0.0-526.0,b01de4e2-6a93-4de7-a839-503c61675cc7,,500,500,fixation,,<div class = centerbox><div class = fixation>+</div></div>,none,500,test,,,,,,,,,,,780,66,poldrack-categorize,528,1018963,0.0-527.0,b01de4e2-6a93-4de7-a839-503c61675cc7,,1500,250,stim,,"<div class = centerbox><div class = stroop-stim style = ""color:blue"">RED</div></div>","66,71,82",1500,test,,,incongruent,TRUE,66,,,500,blue,red,-1,-1,poldrack-single-stim,529,1019724,0.0-528.0,b01de4e2-6a93-4de7-a839-503c61675cc7,,500,500,fixation,,<div class = centerbox><div class = fixation>+</div></div>,none,500,test,,,,,,,,,,,689,71,poldrack-categorize,530,1022237,0.0-529.0,b01de4e2-6a93-4de7-a839-503c61675cc7,,1500,250,stim,,"<div class = centerbox><div class = stroop-stim style = ""color:green"">GREEN</div></div>","66,71,82",1500,test,,,congruent,TRUE,71,,,500,green,green,-1,-1,poldrack-single-stim,531,1022997,0.0-530.0,b01de4e2-6a93-4de7-a839-503c61675cc7,,500,500,fixation,,<div class = centerbox><div class = fixation>+</div></div>,none,500,test,,,,,,,,,,,747,71,poldrack-categorize,532,1025507,0.0-531.0,b01de4e2-6a93-4de7-a839-503c61675cc7,,1500,250,stim,,"<div class = centerbox><div class = stroop-stim style = ""color:green"">GREEN</div></div>","66,71,82",1500,test,,,congruent,TRUE,71,,,500,green,green,-1,-1,poldrack-single-stim,533,1026266,0.0-532.0,b01de4e2-6a93-4de7-a839-503c61675cc7,,500,500,fixation,,<div class = centerbox><div class = fixation>+</div></div>,none,500,test,,,,,,,,,,,931,66,poldrack-categorize,534,1028776,0.0-533.0,b01de4e2-6a93-4de7-a839-503c61675cc7,,1500,250,stim,,"<div class = centerbox><div class = stroop-stim style = ""color:blue"">BLUE</div></div>","66,71,82",1500,test,,,congruent,TRUE,66,,,500,blue,blue,-1,-1,poldrack-single-stim,535,1029534,0.0-534.0,b01de4e2-6a93-4de7-a839-503c61675cc7,,500,500,fixation,,<div class = centerbox><div class = fixation>+</div></div>,none,500,test,,,,,,,,,,,758,71,poldrack-categorize,536,1032047,0.0-535.0,b01de4e2-6a93-4de7-a839-503c61675cc7,,1500,250,stim,,"<div class = centerbox><div class = stroop-stim style = ""color:green"">GREEN</div></div>","66,71,82",1500,test,,,congruent,TRUE,71,,,500,green,green,-1,-1,poldrack-single-stim,537,1032808,0.0-536.0,b01de4e2-6a93-4de7-a839-503c61675cc7,,500,500,fixation,,<div class = centerbox><div class = fixation>+</div></div>,none,500,test,,,,,,,,,,,1244,66,poldrack-categorize,538,1035315,0.0-537.0,b01de4e2-6a93-4de7-a839-503c61675cc7,,1500,250,stim,,"<div class = centerbox><div class = stroop-stim style = ""color:blue"">GREEN</div></div>","66,71,82",1500,test,,,incongruent,TRUE,66,,,500,blue,green,-1,-1,poldrack-single-stim,539,1036075,0.0-538.0,b01de4e2-6a93-4de7-a839-503c61675cc7,,500,500,fixation,,<div class = centerbox><div class = fixation>+</div></div>,none,500,test,,,,,,,,,,,967,66,poldrack-categorize,540,1038589,0.0-539.0,b01de4e2-6a93-4de7-a839-503c61675cc7,,1500,250,stim,,"<div class = centerbox><div class = stroop-stim style = ""color:blue"">BLUE</div></div>","66,71,82",1500,test,,,congruent,TRUE,66,,,500,blue,blue,-1,-1,poldrack-single-stim,541,1039349,0.0-540.0,b01de4e2-6a93-4de7-a839-503c61675cc7,,500,500,fixation,,<div class = centerbox><div class = fixation>+</div></div>,none,500,test,,,,,,,,,,,886,82,poldrack-categorize,542,1041862,0.0-541.0,b01de4e2-6a93-4de7-a839-503c61675cc7,,1500,250,stim,,"<div class = centerbox><div class = stroop-stim style = ""color:red"">GREEN</div></div>","66,71,82",1500,test,,,incongruent,TRUE,82,,,500,red,green,-1,-1,poldrack-single-stim,543,1042623,0.0-542.0,b01de4e2-6a93-4de7-a839-503c61675cc7,,500,500,fixation,,<div class = centerbox><div class = fixation>+</div></div>,none,500,test,,,,,,,,,,,1045,66,poldrack-categorize,544,1045136,0.0-543.0,b01de4e2-6a93-4de7-a839-503c61675cc7,,1500,250,stim,,"<div class = centerbox><div class = stroop-stim style = ""color:blue"">BLUE</div></div>","66,71,82",1500,test,,,congruent,TRUE,66,,,500,blue,blue,-1,-1,poldrack-single-stim,545,1045897,0.0-544.0,b01de4e2-6a93-4de7-a839-503c61675cc7,,500,500,fixation,,<div class = centerbox><div class = fixation>+</div></div>,none,500,test,,,,,,,,,,,685,66,poldrack-categorize,546,1048408,0.0-545.0,b01de4e2-6a93-4de7-a839-503c61675cc7,,1500,250,stim,,"<div class = centerbox><div class = stroop-stim style = ""color:blue"">BLUE</div></div>","66,71,82",1500,test,,,congruent,TRUE,66,,,500,blue,blue,-1,-1,poldrack-single-stim,547,1049163,0.0-546.0,b01de4e2-6a93-4de7-a839-503c61675cc7,,500,500,fixation,,<div class = centerbox><div class = fixation>+</div></div>,none,500,test,,,,,,,,,,,951,71,poldrack-categorize,548,1051672,0.0-547.0,b01de4e2-6a93-4de7-a839-503c61675cc7,,1500,250,stim,,"<div class = centerbox><div class = stroop-stim style = ""color:green"">GREEN</div></div>","66,71,82",1500,test,,,congruent,TRUE,71,,,500,green,green,-1,-1,poldrack-single-stim,549,1052433,0.0-548.0,b01de4e2-6a93-4de7-a839-503c61675cc7,,500,500,fixation,,<div class = centerbox><div class = fixation>+</div></div>,none,500,test,,,,,,,,,,,820,66,poldrack-categorize,550,1054946,0.0-549.0,b01de4e2-6a93-4de7-a839-503c61675cc7,,1500,250,stim,,"<div class = centerbox><div class = stroop-stim style = ""color:blue"">GREEN</div></div>","66,71,82",1500,test,,,incongruent,TRUE,66,,,500,blue,green,-1,-1,poldrack-single-stim,551,1055708,0.0-550.0,b01de4e2-6a93-4de7-a839-503c61675cc7,,500,500,fixation,,<div class = centerbox><div class = fixation>+</div></div>,none,500,test,,,,,,,,,,,561,66,poldrack-categorize,552,1058220,0.0-551.0,b01de4e2-6a93-4de7-a839-503c61675cc7,,1500,250,stim,,"<div class = centerbox><div class = stroop-stim style = ""color:blue"">GREEN</div></div>","66,71,82",1500,test,,,incongruent,TRUE,66,,,500,blue,green,-1,-1,poldrack-single-stim,553,1058981,0.0-552.0,b01de4e2-6a93-4de7-a839-503c61675cc7,,500,500,fixation,,<div class = centerbox><div class = fixation>+</div></div>,none,500,test,,,,,,,,,,,1057,66,poldrack-categorize,554,1061493,0.0-553.0,b01de4e2-6a93-4de7-a839-503c61675cc7,,1500,250,stim,,"<div class = centerbox><div class = stroop-stim style = ""color:blue"">RED</div></div>","66,71,82",1500,test,,,incongruent,TRUE,66,,,500,blue,red,-1,-1,poldrack-single-stim,555,1062254,0.0-554.0,b01de4e2-6a93-4de7-a839-503c61675cc7,,500,500,fixation,,<div class = centerbox><div class = fixation>+</div></div>,none,500,test,,,,,,,,,,,1203,71,poldrack-categorize,556,1064767,0.0-555.0,b01de4e2-6a93-4de7-a839-503c61675cc7,,1500,250,stim,,"<div class = centerbox><div class = stroop-stim style = ""color:green"">GREEN</div></div>","66,71,82",1500,test,,,congruent,TRUE,71,,,500,green,green,-1,-1,poldrack-single-stim,557,1065528,0.0-556.0,b01de4e2-6a93-4de7-a839-503c61675cc7,,500,500,fixation,,<div class = centerbox><div class = fixation>+</div></div>,none,500,test,,,,,,,,,,,1135,82,poldrack-categorize,558,1068041,0.0-557.0,b01de4e2-6a93-4de7-a839-503c61675cc7,,1500,250,stim,,"<div class = centerbox><div class = stroop-stim style = ""color:red"">RED</div></div>","66,71,82",1500,test,,,congruent,TRUE,82,,,500,red,red,-1,-1,poldrack-single-stim,559,1068802,0.0-558.0,b01de4e2-6a93-4de7-a839-503c61675cc7,,500,500,fixation,,<div class = centerbox><div class = fixation>+</div></div>,none,500,test,,,,,,,,,,,-1,-1,poldrack-categorize,560,1071315,0.0-559.0,b01de4e2-6a93-4de7-a839-503c61675cc7,,1500,250,stim,,"<div class = centerbox><div class = stroop-stim style = ""color:red"">RED</div></div>","66,71,82",1500,test,,,congruent,FALSE,82,,,500,red,red,-1,-1,poldrack-single-stim,561,1072076,0.0-560.0,b01de4e2-6a93-4de7-a839-503c61675cc7,,500,500,fixation,,<div class = centerbox><div class = fixation>+</div></div>,none,500,test,,,,,,,,,,,641,66,poldrack-categorize,562,1074589,0.0-561.0,b01de4e2-6a93-4de7-a839-503c61675cc7,,1500,250,stim,,"<div class = centerbox><div class = stroop-stim style = ""color:blue"">BLUE</div></div>","66,71,82",1500,test,,,congruent,TRUE,66,,,500,blue,blue,-1,-1,poldrack-single-stim,563,1075349,0.0-562.0,b01de4e2-6a93-4de7-a839-503c61675cc7,,500,500,fixation,,<div class = centerbox><div class = fixation>+</div></div>,none,500,test,,,,,,,,,,,786,71,poldrack-categorize,564,1077863,0.0-563.0,b01de4e2-6a93-4de7-a839-503c61675cc7,,1500,250,stim,,"<div class = centerbox><div class = stroop-stim style = ""color:green"">GREEN</div></div>","66,71,82",1500,test,,,congruent,TRUE,71,,,500,green,green,-1,-1,poldrack-single-stim,565,1078623,0.0-564.0,b01de4e2-6a93-4de7-a839-503c61675cc7,,500,500,fixation,,<div class = centerbox><div class = fixation>+</div></div>,none,500,test,,,,,,,,,,,472,82,poldrack-categorize,566,1081136,0.0-565.0,b01de4e2-6a93-4de7-a839-503c61675cc7,,1500,250,stim,,"<div class = centerbox><div class = stroop-stim style = ""color:red"">RED</div></div>","66,71,82",1500,test,,,congruent,TRUE,82,,,500,red,red,-1,-1,poldrack-single-stim,567,1081897,0.0-566.0,b01de4e2-6a93-4de7-a839-503c61675cc7,,500,500,fixation,,<div class = centerbox><div class = fixation>+</div></div>,none,500,test,,,,,,,,,,,461,66,poldrack-categorize,568,1084410,0.0-567.0,b01de4e2-6a93-4de7-a839-503c61675cc7,,1500,250,stim,,"<div class = centerbox><div class = stroop-stim style = ""color:blue"">RED</div></div>","66,71,82",1500,test,,,incongruent,TRUE,66,,,500,blue,red,-1,-1,poldrack-single-stim,569,1085171,0.0-568.0,b01de4e2-6a93-4de7-a839-503c61675cc7,,500,500,fixation,,<div class = centerbox><div class = fixation>+</div></div>,none,500,test,,,,,,,,,,,855,71,poldrack-categorize,570,1087684,0.0-569.0,b01de4e2-6a93-4de7-a839-503c61675cc7,,1500,250,stim,,"<div class = centerbox><div class = stroop-stim style = ""color:green"">RED</div></div>","66,71,82",1500,test,,,incongruent,TRUE,71,,,500,green,red,-1,-1,poldrack-single-stim,571,1088445,0.0-570.0,b01de4e2-6a93-4de7-a839-503c61675cc7,,500,500,fixation,,<div class = centerbox><div class = fixation>+</div></div>,none,500,test,,,,,,,,,,,1181,71,poldrack-categorize,572,1090955,0.0-571.0,b01de4e2-6a93-4de7-a839-503c61675cc7,,1500,250,stim,,"<div class = centerbox><div class = stroop-stim style = ""color:green"">GREEN</div></div>","66,71,82",1500,test,,,congruent,TRUE,71,,,500,green,green,-1,-1,poldrack-single-stim,573,1091713,0.0-572.0,b01de4e2-6a93-4de7-a839-503c61675cc7,,500,500,fixation,,<div class = centerbox><div class = fixation>+</div></div>,none,500,test,,,,,,,,,,,724,82,poldrack-categorize,574,1094223,0.0-573.0,b01de4e2-6a93-4de7-a839-503c61675cc7,,1500,250,stim,,"<div class = centerbox><div class = stroop-stim style = ""color:red"">BLUE</div></div>","66,71,82",1500,test,,,incongruent,TRUE,82,,,500,red,blue,-1,-1,poldrack-single-stim,575,1094981,0.0-574.0,b01de4e2-6a93-4de7-a839-503c61675cc7,,500,500,fixation,,<div class = centerbox><div class = fixation>+</div></div>,none,500,test,,,,,,,,,,,808,82,poldrack-categorize,576,1097494,0.0-575.0,b01de4e2-6a93-4de7-a839-503c61675cc7,,1500,250,stim,,"<div class = centerbox><div class = stroop-stim style = ""color:red"">RED</div></div>","66,71,82",1500,test,,,congruent,TRUE,82,,,500,red,red,-1,-1,poldrack-single-stim,577,1098254,0.0-576.0,b01de4e2-6a93-4de7-a839-503c61675cc7,,500,500,fixation,,<div class = centerbox><div class = fixation>+</div></div>,none,500,test,,,,,,,,,,,551,82,poldrack-categorize,578,1100768,0.0-577.0,b01de4e2-6a93-4de7-a839-503c61675cc7,,1500,250,stim,,"<div class = centerbox><div class = stroop-stim style = ""color:red"">RED</div></div>","66,71,82",1500,test,,,congruent,TRUE,82,,,500,red,red,-1,-1,poldrack-single-stim,579,1101528,0.0-578.0,b01de4e2-6a93-4de7-a839-503c61675cc7,,500,500,fixation,,<div class = centerbox><div class = fixation>+</div></div>,none,500,test,,,,,,,,,,,830,71,poldrack-categorize,580,1104041,0.0-579.0,b01de4e2-6a93-4de7-a839-503c61675cc7,,1500,250,stim,,"<div class = centerbox><div class = stroop-stim style = ""color:green"">GREEN</div></div>","66,71,82",1500,test,,,congruent,TRUE,71,,,500,green,green,-1,-1,poldrack-single-stim,581,1104802,0.0-580.0,b01de4e2-6a93-4de7-a839-503c61675cc7,,500,500,fixation,,<div class = centerbox><div class = fixation>+</div></div>,none,500,test,,,,,,,,,,,1214,71,poldrack-categorize,582,1107315,0.0-581.0,b01de4e2-6a93-4de7-a839-503c61675cc7,,1500,250,stim,,"<div class = centerbox><div class = stroop-stim style = ""color:green"">BLUE</div></div>","66,71,82",1500,test,,,incongruent,TRUE,71,,,500,green,blue,-1,-1,poldrack-single-stim,583,1108076,0.0-582.0,b01de4e2-6a93-4de7-a839-503c61675cc7,,500,500,fixation,,<div class = centerbox><div class = fixation>+</div></div>,none,500,test,,,,,,,,,,,753,66,poldrack-categorize,584,1110589,0.0-583.0,b01de4e2-6a93-4de7-a839-503c61675cc7,,1500,250,stim,,"<div class = centerbox><div class = stroop-stim style = ""color:blue"">BLUE</div></div>","66,71,82",1500,test,,,congruent,TRUE,66,,,500,blue,blue,-1,-1,poldrack-single-stim,585,1111344,0.0-584.0,b01de4e2-6a93-4de7-a839-503c61675cc7,,500,500,fixation,,<div class = centerbox><div class = fixation>+</div></div>,none,500,test,,,,,,,,,,,1263,71,poldrack-categorize,586,1113857,0.0-585.0,b01de4e2-6a93-4de7-a839-503c61675cc7,,1500,250,stim,,"<div class = centerbox><div class = stroop-stim style = ""color:red"">GREEN</div></div>","66,71,82",1500,test,,,incongruent,FALSE,82,,,500,red,green,-1,-1,poldrack-single-stim,587,1114612,0.0-586.0,b01de4e2-6a93-4de7-a839-503c61675cc7,,500,500,fixation,,<div class = centerbox><div class = fixation>+</div></div>,none,500,test,,,,,,,,,,,887,66,poldrack-categorize,588,1117125,0.0-587.0,b01de4e2-6a93-4de7-a839-503c61675cc7,,1500,250,stim,,"<div class = centerbox><div class = stroop-stim style = ""color:blue"">GREEN</div></div>","66,71,82",1500,test,,,incongruent,TRUE,66,,,500,blue,green,-1,-1,poldrack-single-stim,589,1117886,0.0-588.0,b01de4e2-6a93-4de7-a839-503c61675cc7,,500,500,fixation,,<div class = centerbox><div class = fixation>+</div></div>,none,500,test,,,,,,,,,,,1171,82,poldrack-categorize,590,1120399,0.0-589.0,b01de4e2-6a93-4de7-a839-503c61675cc7,,1500,250,stim,,"<div class = centerbox><div class = stroop-stim style = ""color:red"">GREEN</div></div>","66,71,82",1500,test,,,incongruent,TRUE,82,,,500,red,green,-1,-1,poldrack-single-stim,591,1121159,0.0-590.0,b01de4e2-6a93-4de7-a839-503c61675cc7,,500,500,fixation,,<div class = centerbox><div class = fixation>+</div></div>,none,500,test,,,,,,,,,,,1249,71,poldrack-categorize,592,1123667,0.0-591.0,b01de4e2-6a93-4de7-a839-503c61675cc7,,1500,250,stim,,"<div class = centerbox><div class = stroop-stim style = ""color:green"">RED</div></div>","66,71,82",1500,test,,,incongruent,TRUE,71,,,500,green,red,-1,-1,poldrack-single-stim,593,1124427,0.0-592.0,b01de4e2-6a93-4de7-a839-503c61675cc7,,500,500,fixation,,<div class = centerbox><div class = fixation>+</div></div>,none,500,test,,,,,,,,,,,1286,71,poldrack-categorize,594,1126941,0.0-593.0,b01de4e2-6a93-4de7-a839-503c61675cc7,,1500,250,stim,,"<div class = centerbox><div class = stroop-stim style = ""color:red"">GREEN</div></div>","66,71,82",1500,test,,,incongruent,FALSE,82,,,500,red,green,-1,-1,poldrack-single-stim,595,1127699,0.0-594.0,b01de4e2-6a93-4de7-a839-503c61675cc7,,500,500,fixation,,<div class = centerbox><div class = fixation>+</div></div>,none,500,test,,,,,,,,,,,1142,66,poldrack-categorize,596,1130214,0.0-595.0,b01de4e2-6a93-4de7-a839-503c61675cc7,,1500,250,stim,,"<div class = centerbox><div class = stroop-stim style = ""color:green"">BLUE</div></div>","66,71,82",1500,test,,,incongruent,FALSE,71,,,500,green,blue,-1,-1,poldrack-single-stim,597,1130975,0.0-596.0,b01de4e2-6a93-4de7-a839-503c61675cc7,,500,500,fixation,,<div class = centerbox><div class = fixation>+</div></div>,none,500,test,,,,,,,,,,,636,71,poldrack-categorize,598,1133488,0.0-597.0,b01de4e2-6a93-4de7-a839-503c61675cc7,,1500,250,stim,,"<div class = centerbox><div class = stroop-stim style = ""color:green"">BLUE</div></div>","66,71,82",1500,test,,,incongruent,TRUE,71,,,500,green,blue,-1,-1,poldrack-single-stim,599,1134249,0.0-598.0,b01de4e2-6a93-4de7-a839-503c61675cc7,,500,500,fixation,,<div class = centerbox><div class = fixation>+</div></div>,none,500,test,,,,,,,,,,,692,66,poldrack-categorize,600,1136762,0.0-599.0,b01de4e2-6a93-4de7-a839-503c61675cc7,,1500,250,stim,,"<div class = centerbox><div class = stroop-stim style = ""color:blue"">BLUE</div></div>","66,71,82",1500,test,,,congruent,TRUE,66,,,500,blue,blue,-1,-1,poldrack-single-stim,601,1137523,0.0-600.0,b01de4e2-6a93-4de7-a839-503c61675cc7,,500,500,fixation,,<div class = centerbox><div class = fixation>+</div></div>,none,500,test,,,,,,,,,,,1244,82,poldrack-categorize,602,1140036,0.0-601.0,b01de4e2-6a93-4de7-a839-503c61675cc7,,1500,250,stim,,"<div class = centerbox><div class = stroop-stim style = ""color:green"">RED</div></div>","66,71,82",1500,test,,,incongruent,FALSE,71,,,500,green,red,-1,-1,poldrack-single-stim,603,1140796,0.0-602.0,b01de4e2-6a93-4de7-a839-503c61675cc7,,500,500,fixation,,<div class = centerbox><div class = fixation>+</div></div>,none,500,test,,,,,,,,,,,1458,82,poldrack-categorize,604,1143311,0.0-603.0,b01de4e2-6a93-4de7-a839-503c61675cc7,,1500,250,stim,,"<div class = centerbox><div class = stroop-stim style = ""color:red"">RED</div></div>","66,71,82",1500,test,,,congruent,TRUE,82,,,500,red,red,-1,-1,poldrack-single-stim,605,1144070,0.0-604.0,b01de4e2-6a93-4de7-a839-503c61675cc7,,500,500,fixation,,<div class = centerbox><div class = fixation>+</div></div>,none,500,test,,,,,,,,,,,827,66,poldrack-categorize,606,1146583,0.0-605.0,b01de4e2-6a93-4de7-a839-503c61675cc7,,1500,250,stim,,"<div class = centerbox><div class = stroop-stim style = ""color:green"">BLUE</div></div>","66,71,82",1500,test,,,incongruent,FALSE,71,,,500,green,blue,-1,-1,poldrack-single-stim,607,1147344,0.0-606.0,b01de4e2-6a93-4de7-a839-503c61675cc7,,500,500,fixation,,<div class = centerbox><div class = fixation>+</div></div>,none,500,test,,,,,,,,,,,-1,-1,poldrack-categorize,608,1149857,0.0-607.0,b01de4e2-6a93-4de7-a839-503c61675cc7,,1500,250,stim,,"<div class = centerbox><div class = stroop-stim style = ""color:red"">RED</div></div>","66,71,82",1500,test,,,congruent,FALSE,82,,,500,red,red,-1,-1,poldrack-single-stim,609,1150612,0.0-608.0,b01de4e2-6a93-4de7-a839-503c61675cc7,,500,500,fixation,,<div class = centerbox><div class = fixation>+</div></div>,none,500,test,,,,,,,,,,,628,71,poldrack-categorize,610,1153124,0.0-609.0,b01de4e2-6a93-4de7-a839-503c61675cc7,,1500,250,stim,,"<div class = centerbox><div class = stroop-stim style = ""color:green"">GREEN</div></div>","66,71,82",1500,test,,,congruent,TRUE,71,,,500,green,green,-1,-1,poldrack-single-stim,611,1153880,0.0-610.0,b01de4e2-6a93-4de7-a839-503c61675cc7,,500,500,fixation,,<div class = centerbox><div class = fixation>+</div></div>,none,500,test,,,,,,,,,,,600,66,poldrack-categorize,612,1156393,0.0-611.0,b01de4e2-6a93-4de7-a839-503c61675cc7,,1500,250,stim,,"<div class = centerbox><div class = stroop-stim style = ""color:blue"">GREEN</div></div>","66,71,82",1500,test,,,incongruent,TRUE,66,,,500,blue,green,-1,-1,poldrack-single-stim,613,1157154,0.0-612.0,b01de4e2-6a93-4de7-a839-503c61675cc7,,500,500,fixation,,<div class = centerbox><div class = fixation>+</div></div>,none,500,test,,,,,,,,,,,681,66,poldrack-categorize,614,1159667,0.0-613.0,b01de4e2-6a93-4de7-a839-503c61675cc7,,1500,250,stim,,"<div class = centerbox><div class = stroop-stim style = ""color:blue"">BLUE</div></div>","66,71,82",1500,test,,,congruent,TRUE,66,,,500,blue,blue,-1,-1,poldrack-single-stim,615,1160428,0.0-614.0,b01de4e2-6a93-4de7-a839-503c61675cc7,,500,500,fixation,,<div class = centerbox><div class = fixation>+</div></div>,none,500,test,,,,,,,,,,,1174,82,poldrack-categorize,616,1162941,0.0-615.0,b01de4e2-6a93-4de7-a839-503c61675cc7,,1500,250,stim,,"<div class = centerbox><div class = stroop-stim style = ""color:green"">RED</div></div>","66,71,82",1500,test,,,incongruent,FALSE,71,,,500,green,red,-1,-1,poldrack-single-stim,617,1163701,0.0-616.0,b01de4e2-6a93-4de7-a839-503c61675cc7,,500,500,fixation,,<div class = centerbox><div class = fixation>+</div></div>,none,500,test,,,,,,,,,,,985,82,poldrack-categorize,618,1166215,0.0-617.0,b01de4e2-6a93-4de7-a839-503c61675cc7,,1500,250,stim,,"<div class = centerbox><div class = stroop-stim style = ""color:red"">RED</div></div>","66,71,82",1500,test,,,congruent,TRUE,82,,,500,red,red,-1,-1,poldrack-single-stim,619,1166975,0.0-618.0,b01de4e2-6a93-4de7-a839-503c61675cc7,,500,500,fixation,,<div class = centerbox><div class = fixation>+</div></div>,none,500,test,,,,,,,,,,,1288,82,poldrack-categorize,620,1169488,0.0-619.0,b01de4e2-6a93-4de7-a839-503c61675cc7,,1500,250,stim,,"<div class = centerbox><div class = stroop-stim style = ""color:red"">BLUE</div></div>","66,71,82",1500,test,,,incongruent,TRUE,82,,,500,red,blue,-1,-1,poldrack-single-stim,621,1170249,0.0-620.0,b01de4e2-6a93-4de7-a839-503c61675cc7,,500,500,fixation,,<div class = centerbox><div class = fixation>+</div></div>,none,500,test,,,,,,,,,,,591,71,poldrack-categorize,622,1172762,0.0-621.0,b01de4e2-6a93-4de7-a839-503c61675cc7,,1500,250,stim,,"<div class = centerbox><div class = stroop-stim style = ""color:green"">GREEN</div></div>","66,71,82",1500,test,,,congruent,TRUE,71,,,500,green,green,-1,-1,poldrack-single-stim,623,1173523,0.0-622.0,b01de4e2-6a93-4de7-a839-503c61675cc7,,500,500,fixation,,<div class = centerbox><div class = fixation>+</div></div>,none,500,test,,,,,,,,,,,971,82,poldrack-categorize,624,1176036,0.0-623.0,b01de4e2-6a93-4de7-a839-503c61675cc7,,1500,250,stim,,"<div class = centerbox><div class = stroop-stim style = ""color:red"">GREEN</div></div>","66,71,82",1500,test,,,incongruent,TRUE,82,,,500,red,green,-1,-1,poldrack-single-stim,625,1176797,0.0-624.0,b01de4e2-6a93-4de7-a839-503c61675cc7,,500,500,fixation,,<div class = centerbox><div class = fixation>+</div></div>,none,500,test,,,,,,,,,,,569,82,poldrack-categorize,626,1179310,0.0-625.0,b01de4e2-6a93-4de7-a839-503c61675cc7,,1500,250,stim,,"<div class = centerbox><div class = stroop-stim style = ""color:red"">RED</div></div>","66,71,82",1500,test,,,congruent,TRUE,82,,,500,red,red,-1,-1,poldrack-single-stim,627,1180070,0.0-626.0,b01de4e2-6a93-4de7-a839-503c61675cc7,,500,500,fixation,,<div class = centerbox><div class = fixation>+</div></div>,none,500,test,,,,,,,,,,,916,71,poldrack-categorize,628,1182584,0.0-627.0,b01de4e2-6a93-4de7-a839-503c61675cc7,,1500,250,stim,,"<div class = centerbox><div class = stroop-stim style = ""color:green"">BLUE</div></div>","66,71,82",1500,test,,,incongruent,TRUE,71,,,500,green,blue,-1,-1,poldrack-single-stim,629,1183344,0.0-628.0,b01de4e2-6a93-4de7-a839-503c61675cc7,,500,500,fixation,,<div class = centerbox><div class = fixation>+</div></div>,none,500,test,,,,,,,,,,,1233,82,poldrack-categorize,630,1185857,0.0-629.0,b01de4e2-6a93-4de7-a839-503c61675cc7,,1500,250,stim,,"<div class = centerbox><div class = stroop-stim style = ""color:green"">RED</div></div>","66,71,82",1500,test,,,incongruent,FALSE,71,,,500,green,red,-1,-1,poldrack-single-stim,631,1186618,0.0-630.0,b01de4e2-6a93-4de7-a839-503c61675cc7,,500,500,fixation,,<div class = centerbox><div class = fixation>+</div></div>,none,500,test,,,,,,,,,,,916,71,poldrack-categorize,632,1189131,0.0-631.0,b01de4e2-6a93-4de7-a839-503c61675cc7,,1500,250,stim,,"<div class = centerbox><div class = stroop-stim style = ""color:blue"">BLUE</div></div>","66,71,82",1500,test,,,congruent,FALSE,66,,,500,blue,blue,84829,,survey-text,633,1274216,0.0-633.0,b01de4e2-6a93-4de7-a839-503c61675cc7,,,,post task questions,,,,,,,,,,,"{""Q0"":""id red, blue, and green words by pressing R,G,B."",""Q1"":""It was pretty tricky with the words saying a different color then the word actually was.""}",,,,,1761,13,poldrack-text,634,1276982,0.0-634.0,b01de4e2-6a93-4de7-a839-503c61675cc7,<div class = centerbox><p class = center-block-text>Thanks for completing this task!</p><p class = center-block-text>Press <strong>enter</strong> to continue.</p></div>,1761,0,end,,,,,,,,,,,,stroop,,,,TRUE14350,13,text,635,1291371,0.0-635.0,b01de4e2-6a93-4de7-a839-503c61675cc7,,,,,,,,,,,,,,,,,,,,