"rt","key_press","trial_type","trial_index","time_elapsed","internal_node_id","subject","text","block_duration","timing_post_trial","trial_id","view_history","stimulus","possible_responses","stim_duration","exp_stage","correct","correct_response","feedback_duration","condition","stim_color","stim_word","responses","exp_id","credit_var"
"94155","13","text","0","94157","0.0-0.0","14a10632-6351-4cbc-a66d-09f704738d77","","","","","","","","","","","","","","","","","",""
"3785","13","poldrack-text","1","98948","0.0-1.0-0.0","14a10632-6351-4cbc-a66d-09f704738d77","<div class = centerbox><p class = center-block-text>Welcome to the experiment. This experiment will take about 8 minutes. Press <strong>enter</strong> to begin.</p></div>","3785","0","instruction","","","","","","","","","","","","","",""
"27977","","poldrack-instructions","2","126926","0.0-1.0-1.0","14a10632-6351-4cbc-a66d-09f704738d77","","","","instruction","[{""page_index"":0,""viewing_time"":27976}]","","","","","","","","","","","","",""
"2183","13","poldrack-text","3","130114","0.0-2.0","14a10632-6351-4cbc-a66d-09f704738d77","<div class = centerbox><p class = block-text>We will start with a few practice trials. Remember, press the key corresponding to the <strong>ink</strong> color of the word: ""r"" for words colored red, ""b"" for words colored blue, and ""g"" for words colored green.</p><p class = block-text>Press <strong>enter</strong> to begin practice.</p></div>","2183","1000","practice_intro","","","","","","","","","","","","","",""
"-1","-1","poldrack-single-stim","4","131622","0.0-3.0","14a10632-6351-4cbc-a66d-09f704738d77","","500","500","fixation","","<div class = centerbox><div class = fixation>+</div></div>","none","500","practice","","","","","","","","",""
"1197","66","poldrack-categorize","5","134128","0.0-4.0","14a10632-6351-4cbc-a66d-09f704738d77","","1500","250","stim","","<div class = centerbox><div class = stroop-stim style = ""color:blue"">RED</div></div>","66,71,82","1500","practice","true","66","500","incongruent","blue","red","","",""
"-1","-1","poldrack-single-stim","6","134884","0.0-5.0","14a10632-6351-4cbc-a66d-09f704738d77","","500","500","fixation","","<div class = centerbox><div class = fixation>+</div></div>","none","500","practice","","","","","","","","",""
"548","66","poldrack-categorize","7","137397","0.0-6.0","14a10632-6351-4cbc-a66d-09f704738d77","","1500","250","stim","","<div class = centerbox><div class = stroop-stim style = ""color:blue"">BLUE</div></div>","66,71,82","1500","practice","true","66","500","congruent","blue","blue","","",""
"-1","-1","poldrack-single-stim","8","138156","0.0-7.0","14a10632-6351-4cbc-a66d-09f704738d77","","500","500","fixation","","<div class = centerbox><div class = fixation>+</div></div>","none","500","practice","","","","","","","","",""
"703","66","poldrack-categorize","9","140665","0.0-8.0","14a10632-6351-4cbc-a66d-09f704738d77","","1500","250","stim","","<div class = centerbox><div class = stroop-stim style = ""color:blue"">GREEN</div></div>","66,71,82","1500","practice","true","66","500","incongruent","blue","green","","",""
"-1","-1","poldrack-single-stim","10","141426","0.0-9.0","14a10632-6351-4cbc-a66d-09f704738d77","","500","500","fixation","","<div class = centerbox><div class = fixation>+</div></div>","none","500","practice","","","","","","","","",""
"709","82","poldrack-categorize","11","143939","0.0-10.0","14a10632-6351-4cbc-a66d-09f704738d77","","1500","250","stim","","<div class = centerbox><div class = stroop-stim style = ""color:red"">RED</div></div>","66,71,82","1500","practice","true","82","500","congruent","red","red","","",""
"-1","-1","poldrack-single-stim","12","144697","0.0-11.0","14a10632-6351-4cbc-a66d-09f704738d77","","500","500","fixation","","<div class = centerbox><div class = fixation>+</div></div>","none","500","practice","","","","","","","","",""
"545","82","poldrack-categorize","13","147207","0.0-12.0","14a10632-6351-4cbc-a66d-09f704738d77","","1500","250","stim","","<div class = centerbox><div class = stroop-stim style = ""color:red"">RED</div></div>","66,71,82","1500","practice","true","82","500","congruent","red","red","","",""
"-1","-1","poldrack-single-stim","14","147962","0.0-13.0","14a10632-6351-4cbc-a66d-09f704738d77","","500","500","fixation","","<div class = centerbox><div class = fixation>+</div></div>","none","500","practice","","","","","","","","",""
"653","82","poldrack-categorize","15","150475","0.0-14.0","14a10632-6351-4cbc-a66d-09f704738d77","","1500","250","stim","","<div class = centerbox><div class = stroop-stim style = ""color:red"">RED</div></div>","66,71,82","1500","practice","true","82","500","congruent","red","red","","",""
"-1","-1","poldrack-single-stim","16","151236","0.0-15.0","14a10632-6351-4cbc-a66d-09f704738d77","","500","500","fixation","","<div class = centerbox><div class = fixation>+</div></div>","none","500","practice","","","","","","","","",""
"564","82","poldrack-categorize","17","153748","0.0-16.0","14a10632-6351-4cbc-a66d-09f704738d77","","1500","250","stim","","<div class = centerbox><div class = stroop-stim style = ""color:red"">RED</div></div>","66,71,82","1500","practice","true","82","500","congruent","red","red","","",""
"-1","-1","poldrack-single-stim","18","154504","0.0-17.0","14a10632-6351-4cbc-a66d-09f704738d77","","500","500","fixation","","<div class = centerbox><div class = fixation>+</div></div>","none","500","practice","","","","","","","","",""
"855","71","poldrack-categorize","19","157017","0.0-18.0","14a10632-6351-4cbc-a66d-09f704738d77","","1500","250","stim","","<div class = centerbox><div class = stroop-stim style = ""color:green"">GREEN</div></div>","66,71,82","1500","practice","true","71","500","congruent","green","green","","",""
"-1","-1","poldrack-single-stim","20","157777","0.0-19.0","14a10632-6351-4cbc-a66d-09f704738d77","","500","500","fixation","","<div class = centerbox><div class = fixation>+</div></div>","none","500","practice","","","","","","","","",""
"885","71","poldrack-categorize","21","160291","0.0-20.0","14a10632-6351-4cbc-a66d-09f704738d77","","1500","250","stim","","<div class = centerbox><div class = stroop-stim style = ""color:green"">BLUE</div></div>","66,71,82","1500","practice","true","71","500","incongruent","green","blue","","",""
"-1","-1","poldrack-single-stim","22","161051","0.0-21.0","14a10632-6351-4cbc-a66d-09f704738d77","","500","500","fixation","","<div class = centerbox><div class = fixation>+</div></div>","none","500","practice","","","","","","","","",""
"779","71","poldrack-categorize","23","163565","0.0-22.0","14a10632-6351-4cbc-a66d-09f704738d77","","1500","250","stim","","<div class = centerbox><div class = stroop-stim style = ""color:green"">GREEN</div></div>","66,71,82","1500","practice","true","71","500","congruent","green","green","","",""
"-1","-1","poldrack-single-stim","24","164325","0.0-23.0","14a10632-6351-4cbc-a66d-09f704738d77","","500","500","fixation","","<div class = centerbox><div class = fixation>+</div></div>","none","500","practice","","","","","","","","",""
"689","66","poldrack-categorize","25","166838","0.0-24.0","14a10632-6351-4cbc-a66d-09f704738d77","","1500","250","stim","","<div class = centerbox><div class = stroop-stim style = ""color:blue"">BLUE</div></div>","66,71,82","1500","practice","true","66","500","congruent","blue","blue","","",""
"-1","-1","poldrack-single-stim","26","167593","0.0-25.0","14a10632-6351-4cbc-a66d-09f704738d77","","500","500","fixation","","<div class = centerbox><div class = fixation>+</div></div>","none","500","practice","","","","","","","","",""
"845","82","poldrack-categorize","27","170106","0.0-26.0","14a10632-6351-4cbc-a66d-09f704738d77","","1500","250","stim","","<div class = centerbox><div class = stroop-stim style = ""color:red"">GREEN</div></div>","66,71,82","1500","practice","true","82","500","incongruent","red","green","","",""
"-1","-1","poldrack-single-stim","28","170867","0.0-27.0","14a10632-6351-4cbc-a66d-09f704738d77","","500","500","fixation","","<div class = centerbox><div class = fixation>+</div></div>","none","500","practice","","","","","","","","",""
"1003","82","poldrack-categorize","29","173380","0.0-28.0","14a10632-6351-4cbc-a66d-09f704738d77","","1500","250","stim","","<div class = centerbox><div class = stroop-stim style = ""color:red"">BLUE</div></div>","66,71,82","1500","practice","true","82","500","incongruent","red","blue","","",""
"-1","-1","poldrack-single-stim","30","174141","0.0-29.0","14a10632-6351-4cbc-a66d-09f704738d77","","500","500","fixation","","<div class = centerbox><div class = fixation>+</div></div>","none","500","practice","","","","","","","","",""
"841","71","poldrack-categorize","31","176654","0.0-30.0","14a10632-6351-4cbc-a66d-09f704738d77","","1500","250","stim","","<div class = centerbox><div class = stroop-stim style = ""color:green"">RED</div></div>","66,71,82","1500","practice","true","71","500","incongruent","green","red","","",""
"-1","-1","poldrack-single-stim","32","177415","0.0-31.0","14a10632-6351-4cbc-a66d-09f704738d77","","500","500","fixation","","<div class = centerbox><div class = fixation>+</div></div>","none","500","practice","","","","","","","","",""
"863","66","poldrack-categorize","33","179924","0.0-32.0","14a10632-6351-4cbc-a66d-09f704738d77","","1500","250","stim","","<div class = centerbox><div class = stroop-stim style = ""color:blue"">RED</div></div>","66,71,82","1500","practice","true","66","500","incongruent","blue","red","","",""
"-1","-1","poldrack-single-stim","34","180682","0.0-33.0","14a10632-6351-4cbc-a66d-09f704738d77","","500","500","fixation","","<div class = centerbox><div class = fixation>+</div></div>","none","500","practice","","","","","","","","",""
"707","82","poldrack-categorize","35","183196","0.0-34.0","14a10632-6351-4cbc-a66d-09f704738d77","","1500","250","stim","","<div class = centerbox><div class = stroop-stim style = ""color:red"">GREEN</div></div>","66,71,82","1500","practice","true","82","500","incongruent","red","green","","",""
"-1","-1","poldrack-single-stim","36","183956","0.0-35.0","14a10632-6351-4cbc-a66d-09f704738d77","","500","500","fixation","","<div class = centerbox><div class = fixation>+</div></div>","none","500","practice","","","","","","","","",""
"937","66","poldrack-categorize","37","186469","0.0-36.0","14a10632-6351-4cbc-a66d-09f704738d77","","1500","250","stim","","<div class = centerbox><div class = stroop-stim style = ""color:blue"">GREEN</div></div>","66,71,82","1500","practice","true","66","500","incongruent","blue","green","","",""
"-1","-1","poldrack-single-stim","38","187230","0.0-37.0","14a10632-6351-4cbc-a66d-09f704738d77","","500","500","fixation","","<div class = centerbox><div class = fixation>+</div></div>","none","500","practice","","","","","","","","",""
"743","71","poldrack-categorize","39","189743","0.0-38.0","14a10632-6351-4cbc-a66d-09f704738d77","","1500","250","stim","","<div class = centerbox><div class = stroop-stim style = ""color:green"">BLUE</div></div>","66,71,82","1500","practice","true","71","500","incongruent","green","blue","","",""
"-1","-1","poldrack-single-stim","40","190504","0.0-39.0","14a10632-6351-4cbc-a66d-09f704738d77","","500","500","fixation","","<div class = centerbox><div class = fixation>+</div></div>","none","500","practice","","","","","","","","",""
"844","66","poldrack-categorize","41","193017","0.0-40.0","14a10632-6351-4cbc-a66d-09f704738d77","","1500","250","stim","","<div class = centerbox><div class = stroop-stim style = ""color:blue"">BLUE</div></div>","66,71,82","1500","practice","true","66","500","congruent","blue","blue","","",""
"-1","-1","poldrack-single-stim","42","193778","0.0-41.0","14a10632-6351-4cbc-a66d-09f704738d77","","500","500","fixation","","<div class = centerbox><div class = fixation>+</div></div>","none","500","practice","","","","","","","","",""
"635","66","poldrack-categorize","43","196290","0.0-42.0","14a10632-6351-4cbc-a66d-09f704738d77","","1500","250","stim","","<div class = centerbox><div class = stroop-stim style = ""color:blue"">BLUE</div></div>","66,71,82","1500","practice","true","66","500","congruent","blue","blue","","",""
"-1","-1","poldrack-single-stim","44","197046","0.0-43.0","14a10632-6351-4cbc-a66d-09f704738d77","","500","500","fixation","","<div class = centerbox><div class = fixation>+</div></div>","none","500","practice","","","","","","","","",""
"782","71","poldrack-categorize","45","199559","0.0-44.0","14a10632-6351-4cbc-a66d-09f704738d77","","1500","250","stim","","<div class = centerbox><div class = stroop-stim style = ""color:green"">GREEN</div></div>","66,71,82","1500","practice","true","71","500","congruent","green","green","","",""
"-1","-1","poldrack-single-stim","46","200319","0.0-45.0","14a10632-6351-4cbc-a66d-09f704738d77","","500","500","fixation","","<div class = centerbox><div class = fixation>+</div></div>","none","500","practice","","","","","","","","",""
"613","82","poldrack-categorize","47","202833","0.0-46.0","14a10632-6351-4cbc-a66d-09f704738d77","","1500","250","stim","","<div class = centerbox><div class = stroop-stim style = ""color:red"">BLUE</div></div>","66,71,82","1500","practice","true","82","500","incongruent","red","blue","","",""
"-1","-1","poldrack-single-stim","48","203587","0.0-47.0","14a10632-6351-4cbc-a66d-09f704738d77","","500","500","fixation","","<div class = centerbox><div class = fixation>+</div></div>","none","500","practice","","","","","","","","",""
"680","71","poldrack-categorize","49","206101","0.0-48.0","14a10632-6351-4cbc-a66d-09f704738d77","","1500","250","stim","","<div class = centerbox><div class = stroop-stim style = ""color:green"">RED</div></div>","66,71,82","1500","practice","true","71","500","incongruent","green","red","","",""
"-1","-1","poldrack-single-stim","50","206861","0.0-49.0","14a10632-6351-4cbc-a66d-09f704738d77","","500","500","fixation","","<div class = centerbox><div class = fixation>+</div></div>","none","500","practice","","","","","","","","",""
"678","71","poldrack-categorize","51","209375","0.0-50.0","14a10632-6351-4cbc-a66d-09f704738d77","","1500","250","stim","","<div class = centerbox><div class = stroop-stim style = ""color:green"">GREEN</div></div>","66,71,82","1500","practice","true","71","500","congruent","green","green","","",""
"3727","13","poldrack-text","52","213357","0.0-52.0","14a10632-6351-4cbc-a66d-09f704738d77","<div class = centerbox><p class = center-block-text>We will now start the test. Respond exactly like you did during practice.</p><p class = center-block-text>Press <strong>enter</strong> to begin the test.</p></div>","3727","1000","test_intro","","","","","","","","","","","","","",""
"-1","-1","poldrack-single-stim","53","214866","0.0-53.0","14a10632-6351-4cbc-a66d-09f704738d77","","500","500","fixation","","<div class = centerbox><div class = fixation>+</div></div>","none","500","test","","","","","","","","",""
"765","82","poldrack-categorize","54","217373","0.0-54.0","14a10632-6351-4cbc-a66d-09f704738d77","","1500","250","stim","","<div class = centerbox><div class = stroop-stim style = ""color:blue"">RED</div></div>","66,71,82","1500","test","false","66","500","incongruent","blue","red","","",""
"-1","-1","poldrack-single-stim","55","218134","0.0-55.0","14a10632-6351-4cbc-a66d-09f704738d77","","500","500","fixation","","<div class = centerbox><div class = fixation>+</div></div>","none","500","test","","","","","","","","",""
"687","71","poldrack-categorize","56","220647","0.0-56.0","14a10632-6351-4cbc-a66d-09f704738d77","","1500","250","stim","","<div class = centerbox><div class = stroop-stim style = ""color:green"">GREEN</div></div>","66,71,82","1500","test","true","71","500","congruent","green","green","","",""
"-1","-1","poldrack-single-stim","57","221406","0.0-57.0","14a10632-6351-4cbc-a66d-09f704738d77","","500","500","fixation","","<div class = centerbox><div class = fixation>+</div></div>","none","500","test","","","","","","","","",""
"974","66","poldrack-categorize","58","223915","0.0-58.0","14a10632-6351-4cbc-a66d-09f704738d77","","1500","250","stim","","<div class = centerbox><div class = stroop-stim style = ""color:blue"">GREEN</div></div>","66,71,82","1500","test","true","66","500","incongruent","blue","green","","",""
"-1","-1","poldrack-single-stim","59","224672","0.0-59.0","14a10632-6351-4cbc-a66d-09f704738d77","","500","500","fixation","","<div class = centerbox><div class = fixation>+</div></div>","none","500","test","","","","","","","","",""
"749","71","poldrack-categorize","60","227183","0.0-60.0","14a10632-6351-4cbc-a66d-09f704738d77","","1500","250","stim","","<div class = centerbox><div class = stroop-stim style = ""color:green"">RED</div></div>","66,71,82","1500","test","true","71","500","incongruent","green","red","","",""
"-1","-1","poldrack-single-stim","61","227944","0.0-61.0","14a10632-6351-4cbc-a66d-09f704738d77","","500","500","fixation","","<div class = centerbox><div class = fixation>+</div></div>","none","500","test","","","","","","","","",""
"708","66","poldrack-categorize","62","230457","0.0-62.0","14a10632-6351-4cbc-a66d-09f704738d77","","1500","250","stim","","<div class = centerbox><div class = stroop-stim style = ""color:blue"">BLUE</div></div>","66,71,82","1500","test","true","66","500","congruent","blue","blue","","",""
"-1","-1","poldrack-single-stim","63","231218","0.0-63.0","14a10632-6351-4cbc-a66d-09f704738d77","","500","500","fixation","","<div class = centerbox><div class = fixation>+</div></div>","none","500","test","","","","","","","","",""
"738","66","poldrack-categorize","64","233731","0.0-64.0","14a10632-6351-4cbc-a66d-09f704738d77","","1500","250","stim","","<div class = centerbox><div class = stroop-stim style = ""color:blue"">RED</div></div>","66,71,82","1500","test","true","66","500","incongruent","blue","red","","",""
"-1","-1","poldrack-single-stim","65","234491","0.0-65.0","14a10632-6351-4cbc-a66d-09f704738d77","","500","500","fixation","","<div class = centerbox><div class = fixation>+</div></div>","none","500","test","","","","","","","","",""
"575","82","poldrack-categorize","66","237001","0.0-66.0","14a10632-6351-4cbc-a66d-09f704738d77","","1500","250","stim","","<div class = centerbox><div class = stroop-stim style = ""color:red"">RED</div></div>","66,71,82","1500","test","true","82","500","congruent","red","red","","",""
"-1","-1","poldrack-single-stim","67","237759","0.0-67.0","14a10632-6351-4cbc-a66d-09f704738d77","","500","500","fixation","","<div class = centerbox><div class = fixation>+</div></div>","none","500","test","","","","","","","","",""
"563","66","poldrack-categorize","68","240273","0.0-68.0","14a10632-6351-4cbc-a66d-09f704738d77","","1500","250","stim","","<div class = centerbox><div class = stroop-stim style = ""color:blue"">BLUE</div></div>","66,71,82","1500","test","true","66","500","congruent","blue","blue","","",""
"-1","-1","poldrack-single-stim","69","241033","0.0-69.0","14a10632-6351-4cbc-a66d-09f704738d77","","500","500","fixation","","<div class = centerbox><div class = fixation>+</div></div>","none","500","test","","","","","","","","",""
"666","82","poldrack-categorize","70","243546","0.0-70.0","14a10632-6351-4cbc-a66d-09f704738d77","","1500","250","stim","","<div class = centerbox><div class = stroop-stim style = ""color:red"">BLUE</div></div>","66,71,82","1500","test","true","82","500","incongruent","red","blue","","",""
"-1","-1","poldrack-single-stim","71","244307","0.0-71.0","14a10632-6351-4cbc-a66d-09f704738d77","","500","500","fixation","","<div class = centerbox><div class = fixation>+</div></div>","none","500","test","","","","","","","","",""
"640","82","poldrack-categorize","72","246820","0.0-72.0","14a10632-6351-4cbc-a66d-09f704738d77","","1500","250","stim","","<div class = centerbox><div class = stroop-stim style = ""color:red"">BLUE</div></div>","66,71,82","1500","test","true","82","500","incongruent","red","blue","","",""
"-1","-1","poldrack-single-stim","73","247581","0.0-73.0","14a10632-6351-4cbc-a66d-09f704738d77","","500","500","fixation","","<div class = centerbox><div class = fixation>+</div></div>","none","500","test","","","","","","","","",""
"710","66","poldrack-categorize","74","250094","0.0-74.0","14a10632-6351-4cbc-a66d-09f704738d77","","1500","250","stim","","<div class = centerbox><div class = stroop-stim style = ""color:blue"">GREEN</div></div>","66,71,82","1500","test","true","66","500","incongruent","blue","green","","",""
"-1","-1","poldrack-single-stim","75","250855","0.0-75.0","14a10632-6351-4cbc-a66d-09f704738d77","","500","500","fixation","","<div class = centerbox><div class = fixation>+</div></div>","none","500","test","","","","","","","","",""
"732","66","poldrack-categorize","76","253368","0.0-76.0","14a10632-6351-4cbc-a66d-09f704738d77","","1500","250","stim","","<div class = centerbox><div class = stroop-stim style = ""color:blue"">GREEN</div></div>","66,71,82","1500","test","true","66","500","incongruent","blue","green","","",""
"-1","-1","poldrack-single-stim","77","254128","0.0-77.0","14a10632-6351-4cbc-a66d-09f704738d77","","500","500","fixation","","<div class = centerbox><div class = fixation>+</div></div>","none","500","test","","","","","","","","",""
"792","71","poldrack-categorize","78","256642","0.0-78.0","14a10632-6351-4cbc-a66d-09f704738d77","","1500","250","stim","","<div class = centerbox><div class = stroop-stim style = ""color:green"">GREEN</div></div>","66,71,82","1500","test","true","71","500","congruent","green","green","","",""
"-1","-1","poldrack-single-stim","79","257402","0.0-79.0","14a10632-6351-4cbc-a66d-09f704738d77","","500","500","fixation","","<div class = centerbox><div class = fixation>+</div></div>","none","500","test","","","","","","","","",""
"616","66","poldrack-categorize","80","259915","0.0-80.0","14a10632-6351-4cbc-a66d-09f704738d77","","1500","250","stim","","<div class = centerbox><div class = stroop-stim style = ""color:blue"">BLUE</div></div>","66,71,82","1500","test","true","66","500","congruent","blue","blue","","",""
"-1","-1","poldrack-single-stim","81","260676","0.0-81.0","14a10632-6351-4cbc-a66d-09f704738d77","","500","500","fixation","","<div class = centerbox><div class = fixation>+</div></div>","none","500","test","","","","","","","","",""
"718","66","poldrack-categorize","82","263189","0.0-82.0","14a10632-6351-4cbc-a66d-09f704738d77","","1500","250","stim","","<div class = centerbox><div class = stroop-stim style = ""color:blue"">BLUE</div></div>","66,71,82","1500","test","true","66","500","congruent","blue","blue","","",""
"-1","-1","poldrack-single-stim","83","263944","0.0-83.0","14a10632-6351-4cbc-a66d-09f704738d77","","500","500","fixation","","<div class = centerbox><div class = fixation>+</div></div>","none","500","test","","","","","","","","",""
"456","66","poldrack-categorize","84","266457","0.0-84.0","14a10632-6351-4cbc-a66d-09f704738d77","","1500","250","stim","","<div class = centerbox><div class = stroop-stim style = ""color:blue"">BLUE</div></div>","66,71,82","1500","test","true","66","500","congruent","blue","blue","","",""
"-1","-1","poldrack-single-stim","85","267218","0.0-85.0","14a10632-6351-4cbc-a66d-09f704738d77","","500","500","fixation","","<div class = centerbox><div class = fixation>+</div></div>","none","500","test","","","","","","","","",""
"894","66","poldrack-categorize","86","269731","0.0-86.0","14a10632-6351-4cbc-a66d-09f704738d77","","1500","250","stim","","<div class = centerbox><div class = stroop-stim style = ""color:blue"">RED</div></div>","66,71,82","1500","test","true","66","500","incongruent","blue","red","","",""
"-1","-1","poldrack-single-stim","87","270492","0.0-87.0","14a10632-6351-4cbc-a66d-09f704738d77","","500","500","fixation","","<div class = centerbox><div class = fixation>+</div></div>","none","500","test","","","","","","","","",""
"557","66","poldrack-categorize","88","273005","0.0-88.0","14a10632-6351-4cbc-a66d-09f704738d77","","1500","250","stim","","<div class = centerbox><div class = stroop-stim style = ""color:blue"">BLUE</div></div>","66,71,82","1500","test","true","66","500","congruent","blue","blue","","",""
"-1","-1","poldrack-single-stim","89","273760","0.0-89.0","14a10632-6351-4cbc-a66d-09f704738d77","","500","500","fixation","","<div class = centerbox><div class = fixation>+</div></div>","none","500","test","","","","","","","","",""
"760","71","poldrack-categorize","90","276273","0.0-90.0","14a10632-6351-4cbc-a66d-09f704738d77","","1500","250","stim","","<div class = centerbox><div class = stroop-stim style = ""color:green"">RED</div></div>","66,71,82","1500","test","true","71","500","incongruent","green","red","","",""
"-1","-1","poldrack-single-stim","91","277033","0.0-91.0","14a10632-6351-4cbc-a66d-09f704738d77","","500","500","fixation","","<div class = centerbox><div class = fixation>+</div></div>","none","500","test","","","","","","","","",""
"625","71","poldrack-categorize","92","279547","0.0-92.0","14a10632-6351-4cbc-a66d-09f704738d77","","1500","250","stim","","<div class = centerbox><div class = stroop-stim style = ""color:green"">GREEN</div></div>","66,71,82","1500","test","true","71","500","congruent","green","green","","",""
"-1","-1","poldrack-single-stim","93","280305","0.0-93.0","14a10632-6351-4cbc-a66d-09f704738d77","","500","500","fixation","","<div class = centerbox><div class = fixation>+</div></div>","none","500","test","","","","","","","","",""
"689","82","poldrack-categorize","94","282815","0.0-94.0","14a10632-6351-4cbc-a66d-09f704738d77","","1500","250","stim","","<div class = centerbox><div class = stroop-stim style = ""color:red"">GREEN</div></div>","66,71,82","1500","test","true","82","500","incongruent","red","green","","",""
"-1","-1","poldrack-single-stim","95","283576","0.0-95.0","14a10632-6351-4cbc-a66d-09f704738d77","","500","500","fixation","","<div class = centerbox><div class = fixation>+</div></div>","none","500","test","","","","","","","","",""
"609","66","poldrack-categorize","96","286088","0.0-96.0","14a10632-6351-4cbc-a66d-09f704738d77","","1500","250","stim","","<div class = centerbox><div class = stroop-stim style = ""color:blue"">GREEN</div></div>","66,71,82","1500","test","true","66","500","incongruent","blue","green","","",""
"-1","-1","poldrack-single-stim","97","286849","0.0-97.0","14a10632-6351-4cbc-a66d-09f704738d77","","500","500","fixation","","<div class = centerbox><div class = fixation>+</div></div>","none","500","test","","","","","","","","",""
"632","66","poldrack-categorize","98","289356","0.0-98.0","14a10632-6351-4cbc-a66d-09f704738d77","","1500","250","stim","","<div class = centerbox><div class = stroop-stim style = ""color:blue"">BLUE</div></div>","66,71,82","1500","test","true","66","500","congruent","blue","blue","","",""
"-1","-1","poldrack-single-stim","99","290117","0.0-99.0","14a10632-6351-4cbc-a66d-09f704738d77","","500","500","fixation","","<div class = centerbox><div class = fixation>+</div></div>","none","500","test","","","","","","","","",""
"771","71","poldrack-categorize","100","292630","0.0-100.0","14a10632-6351-4cbc-a66d-09f704738d77","","1500","250","stim","","<div class = centerbox><div class = stroop-stim style = ""color:green"">RED</div></div>","66,71,82","1500","test","true","71","500","incongruent","green","red","","",""
"-1","-1","poldrack-single-stim","101","293391","0.0-101.0","14a10632-6351-4cbc-a66d-09f704738d77","","500","500","fixation","","<div class = centerbox><div class = fixation>+</div></div>","none","500","test","","","","","","","","",""
"648","82","poldrack-categorize","102","295903","0.0-102.0","14a10632-6351-4cbc-a66d-09f704738d77","","1500","250","stim","","<div class = centerbox><div class = stroop-stim style = ""color:red"">RED</div></div>","66,71,82","1500","test","true","82","500","congruent","red","red","","",""
"-1","-1","poldrack-single-stim","103","296659","0.0-103.0","14a10632-6351-4cbc-a66d-09f704738d77","","500","500","fixation","","<div class = centerbox><div class = fixation>+</div></div>","none","500","test","","","","","","","","",""
"722","82","poldrack-categorize","104","299172","0.0-104.0","14a10632-6351-4cbc-a66d-09f704738d77","","1500","250","stim","","<div class = centerbox><div class = stroop-stim style = ""color:red"">BLUE</div></div>","66,71,82","1500","test","true","82","500","incongruent","red","blue","","",""
"-1","-1","poldrack-single-stim","105","299933","0.0-105.0","14a10632-6351-4cbc-a66d-09f704738d77","","500","500","fixation","","<div class = centerbox><div class = fixation>+</div></div>","none","500","test","","","","","","","","",""
"652","66","poldrack-categorize","106","302440","0.0-106.0","14a10632-6351-4cbc-a66d-09f704738d77","","1500","250","stim","","<div class = centerbox><div class = stroop-stim style = ""color:blue"">BLUE</div></div>","66,71,82","1500","test","true","66","500","congruent","blue","blue","","",""
"-1","-1","poldrack-single-stim","107","303201","0.0-107.0","14a10632-6351-4cbc-a66d-09f704738d77","","500","500","fixation","","<div class = centerbox><div class = fixation>+</div></div>","none","500","test","","","","","","","","",""
"646","71","poldrack-categorize","108","305714","0.0-108.0","14a10632-6351-4cbc-a66d-09f704738d77","","1500","250","stim","","<div class = centerbox><div class = stroop-stim style = ""color:green"">BLUE</div></div>","66,71,82","1500","test","true","71","500","incongruent","green","blue","","",""
"-1","-1","poldrack-single-stim","109","306474","0.0-109.0","14a10632-6351-4cbc-a66d-09f704738d77","","500","500","fixation","","<div class = centerbox><div class = fixation>+</div></div>","none","500","test","","","","","","","","",""
"813","66","poldrack-categorize","110","308988","0.0-110.0","14a10632-6351-4cbc-a66d-09f704738d77","","1500","250","stim","","<div class = centerbox><div class = stroop-stim style = ""color:blue"">RED</div></div>","66,71,82","1500","test","true","66","500","incongruent","blue","red","","",""
"-1","-1","poldrack-single-stim","111","309744","0.0-111.0","14a10632-6351-4cbc-a66d-09f704738d77","","500","500","fixation","","<div class = centerbox><div class = fixation>+</div></div>","none","500","test","","","","","","","","",""
"1333","66","poldrack-categorize","112","312255","0.0-112.0","14a10632-6351-4cbc-a66d-09f704738d77","","1500","250","stim","","<div class = centerbox><div class = stroop-stim style = ""color:blue"">BLUE</div></div>","66,71,82","1500","test","true","66","500","congruent","blue","blue","","",""
"-1","-1","poldrack-single-stim","113","313010","0.0-113.0","14a10632-6351-4cbc-a66d-09f704738d77","","500","500","fixation","","<div class = centerbox><div class = fixation>+</div></div>","none","500","test","","","","","","","","",""
"498","66","poldrack-categorize","114","315523","0.0-114.0","14a10632-6351-4cbc-a66d-09f704738d77","","1500","250","stim","","<div class = centerbox><div class = stroop-stim style = ""color:blue"">BLUE</div></div>","66,71,82","1500","test","true","66","500","congruent","blue","blue","","",""
"-1","-1","poldrack-single-stim","115","316284","0.0-115.0","14a10632-6351-4cbc-a66d-09f704738d77","","500","500","fixation","","<div class = centerbox><div class = fixation>+</div></div>","none","500","test","","","","","","","","",""
"626","71","poldrack-categorize","116","318798","0.0-116.0","14a10632-6351-4cbc-a66d-09f704738d77","","1500","250","stim","","<div class = centerbox><div class = stroop-stim style = ""color:green"">BLUE</div></div>","66,71,82","1500","test","true","71","500","incongruent","green","blue","","",""
"-1","-1","poldrack-single-stim","117","319558","0.0-117.0","14a10632-6351-4cbc-a66d-09f704738d77","","500","500","fixation","","<div class = centerbox><div class = fixation>+</div></div>","none","500","test","","","","","","","","",""
"751","71","poldrack-categorize","118","322070","0.0-118.0","14a10632-6351-4cbc-a66d-09f704738d77","","1500","250","stim","","<div class = centerbox><div class = stroop-stim style = ""color:green"">BLUE</div></div>","66,71,82","1500","test","true","71","500","incongruent","green","blue","","",""
"-1","-1","poldrack-single-stim","119","322826","0.0-119.0","14a10632-6351-4cbc-a66d-09f704738d77","","500","500","fixation","","<div class = centerbox><div class = fixation>+</div></div>","none","500","test","","","","","","","","",""
"570","71","poldrack-categorize","120","325339","0.0-120.0","14a10632-6351-4cbc-a66d-09f704738d77","","1500","250","stim","","<div class = centerbox><div class = stroop-stim style = ""color:green"">GREEN</div></div>","66,71,82","1500","test","true","71","500","congruent","green","green","","",""
"-1","-1","poldrack-single-stim","121","326100","0.0-121.0","14a10632-6351-4cbc-a66d-09f704738d77","","500","500","fixation","","<div class = centerbox><div class = fixation>+</div></div>","none","500","test","","","","","","","","",""
"511","66","poldrack-categorize","122","328613","0.0-122.0","14a10632-6351-4cbc-a66d-09f704738d77","","1500","250","stim","","<div class = centerbox><div class = stroop-stim style = ""color:blue"">BLUE</div></div>","66,71,82","1500","test","true","66","500","congruent","blue","blue","","",""
"-1","-1","poldrack-single-stim","123","329374","0.0-123.0","14a10632-6351-4cbc-a66d-09f704738d77","","500","500","fixation","","<div class = centerbox><div class = fixation>+</div></div>","none","500","test","","","","","","","","",""
"695","71","poldrack-categorize","124","331887","0.0-124.0","14a10632-6351-4cbc-a66d-09f704738d77","","1500","250","stim","","<div class = centerbox><div class = stroop-stim style = ""color:green"">RED</div></div>","66,71,82","1500","test","true","71","500","incongruent","green","red","","",""
"-1","-1","poldrack-single-stim","125","332648","0.0-125.0","14a10632-6351-4cbc-a66d-09f704738d77","","500","500","fixation","","<div class = centerbox><div class = fixation>+</div></div>","none","500","test","","","","","","","","",""
"582","82","poldrack-categorize","126","335161","0.0-126.0","14a10632-6351-4cbc-a66d-09f704738d77","","1500","250","stim","","<div class = centerbox><div class = stroop-stim style = ""color:red"">BLUE</div></div>","66,71,82","1500","test","true","82","500","incongruent","red","blue","","",""
"-1","-1","poldrack-single-stim","127","335921","0.0-127.0","14a10632-6351-4cbc-a66d-09f704738d77","","500","500","fixation","","<div class = centerbox><div class = fixation>+</div></div>","none","500","test","","","","","","","","",""
"595","71","poldrack-categorize","128","338435","0.0-128.0","14a10632-6351-4cbc-a66d-09f704738d77","","1500","250","stim","","<div class = centerbox><div class = stroop-stim style = ""color:green"">RED</div></div>","66,71,82","1500","test","true","71","500","incongruent","green","red","","",""
"-1","-1","poldrack-single-stim","129","339195","0.0-129.0","14a10632-6351-4cbc-a66d-09f704738d77","","500","500","fixation","","<div class = centerbox><div class = fixation>+</div></div>","none","500","test","","","","","","","","",""
"680","82","poldrack-categorize","130","341708","0.0-130.0","14a10632-6351-4cbc-a66d-09f704738d77","","1500","250","stim","","<div class = centerbox><div class = stroop-stim style = ""color:blue"">RED</div></div>","66,71,82","1500","test","false","66","500","incongruent","blue","red","","",""
"-1","-1","poldrack-single-stim","131","342469","0.0-131.0","14a10632-6351-4cbc-a66d-09f704738d77","","500","500","fixation","","<div class = centerbox><div class = fixation>+</div></div>","none","500","test","","","","","","","","",""
"751","66","poldrack-categorize","132","344982","0.0-132.0","14a10632-6351-4cbc-a66d-09f704738d77","","1500","250","stim","","<div class = centerbox><div class = stroop-stim style = ""color:blue"">BLUE</div></div>","66,71,82","1500","test","true","66","500","congruent","blue","blue","","",""
"-1","-1","poldrack-single-stim","133","345743","0.0-133.0","14a10632-6351-4cbc-a66d-09f704738d77","","500","500","fixation","","<div class = centerbox><div class = fixation>+</div></div>","none","500","test","","","","","","","","",""
"597","71","poldrack-categorize","134","348256","0.0-134.0","14a10632-6351-4cbc-a66d-09f704738d77","","1500","250","stim","","<div class = centerbox><div class = stroop-stim style = ""color:green"">GREEN</div></div>","66,71,82","1500","test","true","71","500","congruent","green","green","","",""
"-1","-1","poldrack-single-stim","135","349016","0.0-135.0","14a10632-6351-4cbc-a66d-09f704738d77","","500","500","fixation","","<div class = centerbox><div class = fixation>+</div></div>","none","500","test","","","","","","","","",""
"859","71","poldrack-categorize","136","351530","0.0-136.0","14a10632-6351-4cbc-a66d-09f704738d77","","1500","250","stim","","<div class = centerbox><div class = stroop-stim style = ""color:green"">RED</div></div>","66,71,82","1500","test","true","71","500","incongruent","green","red","","",""
"-1","-1","poldrack-single-stim","137","352290","0.0-137.0","14a10632-6351-4cbc-a66d-09f704738d77","","500","500","fixation","","<div class = centerbox><div class = fixation>+</div></div>","none","500","test","","","","","","","","",""
"672","71","poldrack-categorize","138","354800","0.0-138.0","14a10632-6351-4cbc-a66d-09f704738d77","","1500","250","stim","","<div class = centerbox><div class = stroop-stim style = ""color:green"">GREEN</div></div>","66,71,82","1500","test","true","71","500","congruent","green","green","","",""
"-1","-1","poldrack-single-stim","139","355558","0.0-139.0","14a10632-6351-4cbc-a66d-09f704738d77","","500","500","fixation","","<div class = centerbox><div class = fixation>+</div></div>","none","500","test","","","","","","","","",""
"684","82","poldrack-categorize","140","358072","0.0-140.0","14a10632-6351-4cbc-a66d-09f704738d77","","1500","250","stim","","<div class = centerbox><div class = stroop-stim style = ""color:red"">GREEN</div></div>","66,71,82","1500","test","true","82","500","incongruent","red","green","","",""
"-1","-1","poldrack-single-stim","141","358832","0.0-141.0","14a10632-6351-4cbc-a66d-09f704738d77","","500","500","fixation","","<div class = centerbox><div class = fixation>+</div></div>","none","500","test","","","","","","","","",""
"755","82","poldrack-categorize","142","361345","0.0-142.0","14a10632-6351-4cbc-a66d-09f704738d77","","1500","250","stim","","<div class = centerbox><div class = stroop-stim style = ""color:red"">BLUE</div></div>","66,71,82","1500","test","true","82","500","incongruent","red","blue","","",""
"-1","-1","poldrack-single-stim","143","362106","0.0-143.0","14a10632-6351-4cbc-a66d-09f704738d77","","500","500","fixation","","<div class = centerbox><div class = fixation>+</div></div>","none","500","test","","","","","","","","",""
"706","82","poldrack-categorize","144","364619","0.0-144.0","14a10632-6351-4cbc-a66d-09f704738d77","","1500","250","stim","","<div class = centerbox><div class = stroop-stim style = ""color:red"">GREEN</div></div>","66,71,82","1500","test","true","82","500","incongruent","red","green","","",""
"-1","-1","poldrack-single-stim","145","365380","0.0-145.0","14a10632-6351-4cbc-a66d-09f704738d77","","500","500","fixation","","<div class = centerbox><div class = fixation>+</div></div>","none","500","test","","","","","","","","",""
"582","82","poldrack-categorize","146","367893","0.0-146.0","14a10632-6351-4cbc-a66d-09f704738d77","","1500","250","stim","","<div class = centerbox><div class = stroop-stim style = ""color:red"">GREEN</div></div>","66,71,82","1500","test","true","82","500","incongruent","red","green","","",""
"-1","-1","poldrack-single-stim","147","368654","0.0-147.0","14a10632-6351-4cbc-a66d-09f704738d77","","500","500","fixation","","<div class = centerbox><div class = fixation>+</div></div>","none","500","test","","","","","","","","",""
"662","82","poldrack-categorize","148","371167","0.0-148.0","14a10632-6351-4cbc-a66d-09f704738d77","","1500","250","stim","","<div class = centerbox><div class = stroop-stim style = ""color:red"">GREEN</div></div>","66,71,82","1500","test","true","82","500","incongruent","red","green","","",""
"-1","-1","poldrack-single-stim","149","371927","0.0-149.0","14a10632-6351-4cbc-a66d-09f704738d77","","500","500","fixation","","<div class = centerbox><div class = fixation>+</div></div>","none","500","test","","","","","","","","",""
"916","71","poldrack-categorize","150","374441","0.0-150.0","14a10632-6351-4cbc-a66d-09f704738d77","","1500","250","stim","","<div class = centerbox><div class = stroop-stim style = ""color:green"">GREEN</div></div>","66,71,82","1500","test","true","71","500","congruent","green","green","","",""
"-1","-1","poldrack-single-stim","151","375201","0.0-151.0","14a10632-6351-4cbc-a66d-09f704738d77","","500","500","fixation","","<div class = centerbox><div class = fixation>+</div></div>","none","500","test","","","","","","","","",""
"737","82","poldrack-categorize","152","377715","0.0-152.0","14a10632-6351-4cbc-a66d-09f704738d77","","1500","250","stim","","<div class = centerbox><div class = stroop-stim style = ""color:red"">RED</div></div>","66,71,82","1500","test","true","82","500","congruent","red","red","","",""
"-1","-1","poldrack-single-stim","153","378475","0.0-153.0","14a10632-6351-4cbc-a66d-09f704738d77","","500","500","fixation","","<div class = centerbox><div class = fixation>+</div></div>","none","500","test","","","","","","","","",""
"845","71","poldrack-categorize","154","380988","0.0-154.0","14a10632-6351-4cbc-a66d-09f704738d77","","1500","250","stim","","<div class = centerbox><div class = stroop-stim style = ""color:green"">RED</div></div>","66,71,82","1500","test","true","71","500","incongruent","green","red","","",""
"-1","-1","poldrack-single-stim","155","381749","0.0-155.0","14a10632-6351-4cbc-a66d-09f704738d77","","500","500","fixation","","<div class = centerbox><div class = fixation>+</div></div>","none","500","test","","","","","","","","",""
"683","71","poldrack-categorize","156","384262","0.0-156.0","14a10632-6351-4cbc-a66d-09f704738d77","","1500","250","stim","","<div class = centerbox><div class = stroop-stim style = ""color:green"">GREEN</div></div>","66,71,82","1500","test","true","71","500","congruent","green","green","","",""
"-1","-1","poldrack-single-stim","157","385023","0.0-157.0","14a10632-6351-4cbc-a66d-09f704738d77","","500","500","fixation","","<div class = centerbox><div class = fixation>+</div></div>","none","500","test","","","","","","","","",""
"763","71","poldrack-categorize","158","387536","0.0-158.0","14a10632-6351-4cbc-a66d-09f704738d77","","1500","250","stim","","<div class = centerbox><div class = stroop-stim style = ""color:green"">BLUE</div></div>","66,71,82","1500","test","true","71","500","incongruent","green","blue","","",""
"-1","-1","poldrack-single-stim","159","388296","0.0-159.0","14a10632-6351-4cbc-a66d-09f704738d77","","500","500","fixation","","<div class = centerbox><div class = fixation>+</div></div>","none","500","test","","","","","","","","",""
"649","71","poldrack-categorize","160","390810","0.0-160.0","14a10632-6351-4cbc-a66d-09f704738d77","","1500","250","stim","","<div class = centerbox><div class = stroop-stim style = ""color:green"">GREEN</div></div>","66,71,82","1500","test","true","71","500","congruent","green","green","","",""
"-1","-1","poldrack-single-stim","161","391571","0.0-161.0","14a10632-6351-4cbc-a66d-09f704738d77","","500","500","fixation","","<div class = centerbox><div class = fixation>+</div></div>","none","500","test","","","","","","","","",""
"614","82","poldrack-categorize","162","394084","0.0-162.0","14a10632-6351-4cbc-a66d-09f704738d77","","1500","250","stim","","<div class = centerbox><div class = stroop-stim style = ""color:red"">BLUE</div></div>","66,71,82","1500","test","true","82","500","incongruent","red","blue","","",""
"-1","-1","poldrack-single-stim","163","394844","0.0-163.0","14a10632-6351-4cbc-a66d-09f704738d77","","500","500","fixation","","<div class = centerbox><div class = fixation>+</div></div>","none","500","test","","","","","","","","",""
"701","82","poldrack-categorize","164","397357","0.0-164.0","14a10632-6351-4cbc-a66d-09f704738d77","","1500","250","stim","","<div class = centerbox><div class = stroop-stim style = ""color:red"">GREEN</div></div>","66,71,82","1500","test","true","82","500","incongruent","red","green","","",""
"-1","-1","poldrack-single-stim","165","398118","0.0-165.0","14a10632-6351-4cbc-a66d-09f704738d77","","500","500","fixation","","<div class = centerbox><div class = fixation>+</div></div>","none","500","test","","","","","","","","",""
"716","71","poldrack-categorize","166","400631","0.0-166.0","14a10632-6351-4cbc-a66d-09f704738d77","","1500","250","stim","","<div class = centerbox><div class = stroop-stim style = ""color:green"">GREEN</div></div>","66,71,82","1500","test","true","71","500","congruent","green","green","","",""
"-1","-1","poldrack-single-stim","167","401392","0.0-167.0","14a10632-6351-4cbc-a66d-09f704738d77","","500","500","fixation","","<div class = centerbox><div class = fixation>+</div></div>","none","500","test","","","","","","","","",""
"729","82","poldrack-categorize","168","403905","0.0-168.0","14a10632-6351-4cbc-a66d-09f704738d77","","1500","250","stim","","<div class = centerbox><div class = stroop-stim style = ""color:red"">RED</div></div>","66,71,82","1500","test","true","82","500","congruent","red","red","","",""
"-1","-1","poldrack-single-stim","169","404666","0.0-169.0","14a10632-6351-4cbc-a66d-09f704738d77","","500","500","fixation","","<div class = centerbox><div class = fixation>+</div></div>","none","500","test","","","","","","","","",""
"608","82","poldrack-categorize","170","407177","0.0-170.0","14a10632-6351-4cbc-a66d-09f704738d77","","1500","250","stim","","<div class = centerbox><div class = stroop-stim style = ""color:red"">RED</div></div>","66,71,82","1500","test","true","82","500","congruent","red","red","","",""
"-1","-1","poldrack-single-stim","171","407934","0.0-171.0","14a10632-6351-4cbc-a66d-09f704738d77","","500","500","fixation","","<div class = centerbox><div class = fixation>+</div></div>","none","500","test","","","","","","","","",""
"674","66","poldrack-categorize","172","410447","0.0-172.0","14a10632-6351-4cbc-a66d-09f704738d77","","1500","250","stim","","<div class = centerbox><div class = stroop-stim style = ""color:blue"">BLUE</div></div>","66,71,82","1500","test","true","66","500","congruent","blue","blue","","",""
"-1","-1","poldrack-single-stim","173","411202","0.0-173.0","14a10632-6351-4cbc-a66d-09f704738d77","","500","500","fixation","","<div class = centerbox><div class = fixation>+</div></div>","none","500","test","","","","","","","","",""
"702","82","poldrack-categorize","174","413715","0.0-174.0","14a10632-6351-4cbc-a66d-09f704738d77","","1500","250","stim","","<div class = centerbox><div class = stroop-stim style = ""color:red"">RED</div></div>","66,71,82","1500","test","true","82","500","congruent","red","red","","",""
"-1","-1","poldrack-single-stim","175","414475","0.0-175.0","14a10632-6351-4cbc-a66d-09f704738d77","","500","500","fixation","","<div class = centerbox><div class = fixation>+</div></div>","none","500","test","","","","","","","","",""
"885","82","poldrack-categorize","176","416989","0.0-176.0","14a10632-6351-4cbc-a66d-09f704738d77","","1500","250","stim","","<div class = centerbox><div class = stroop-stim style = ""color:red"">GREEN</div></div>","66,71,82","1500","test","true","82","500","incongruent","red","green","","",""
"-1","-1","poldrack-single-stim","177","417749","0.0-177.0","14a10632-6351-4cbc-a66d-09f704738d77","","500","500","fixation","","<div class = centerbox><div class = fixation>+</div></div>","none","500","test","","","","","","","","",""
"987","71","poldrack-categorize","178","420262","0.0-178.0","14a10632-6351-4cbc-a66d-09f704738d77","","1500","250","stim","","<div class = centerbox><div class = stroop-stim style = ""color:green"">BLUE</div></div>","66,71,82","1500","test","true","71","500","incongruent","green","blue","","",""
"-1","-1","poldrack-single-stim","179","421023","0.0-179.0","14a10632-6351-4cbc-a66d-09f704738d77","","500","500","fixation","","<div class = centerbox><div class = fixation>+</div></div>","none","500","test","","","","","","","","",""
"777","82","poldrack-categorize","180","423536","0.0-180.0","14a10632-6351-4cbc-a66d-09f704738d77","","1500","250","stim","","<div class = centerbox><div class = stroop-stim style = ""color:red"">GREEN</div></div>","66,71,82","1500","test","true","82","500","incongruent","red","green","","",""
"-1","-1","poldrack-single-stim","181","424297","0.0-181.0","14a10632-6351-4cbc-a66d-09f704738d77","","500","500","fixation","","<div class = centerbox><div class = fixation>+</div></div>","none","500","test","","","","","","","","",""
"1071","71","poldrack-categorize","182","426804","0.0-182.0","14a10632-6351-4cbc-a66d-09f704738d77","","1500","250","stim","","<div class = centerbox><div class = stroop-stim style = ""color:green"">RED</div></div>","66,71,82","1500","test","true","71","500","incongruent","green","red","","",""
"-1","-1","poldrack-single-stim","183","427565","0.0-183.0","14a10632-6351-4cbc-a66d-09f704738d77","","500","500","fixation","","<div class = centerbox><div class = fixation>+</div></div>","none","500","test","","","","","","","","",""
"665","66","poldrack-categorize","184","430078","0.0-184.0","14a10632-6351-4cbc-a66d-09f704738d77","","1500","250","stim","","<div class = centerbox><div class = stroop-stim style = ""color:blue"">BLUE</div></div>","66,71,82","1500","test","true","66","500","congruent","blue","blue","","",""
"-1","-1","poldrack-single-stim","185","430839","0.0-185.0","14a10632-6351-4cbc-a66d-09f704738d77","","500","500","fixation","","<div class = centerbox><div class = fixation>+</div></div>","none","500","test","","","","","","","","",""
"618","71","poldrack-categorize","186","433346","0.0-186.0","14a10632-6351-4cbc-a66d-09f704738d77","","1500","250","stim","","<div class = centerbox><div class = stroop-stim style = ""color:green"">GREEN</div></div>","66,71,82","1500","test","true","71","500","congruent","green","green","","",""
"-1","-1","poldrack-single-stim","187","434106","0.0-187.0","14a10632-6351-4cbc-a66d-09f704738d77","","500","500","fixation","","<div class = centerbox><div class = fixation>+</div></div>","none","500","test","","","","","","","","",""
"897","66","poldrack-categorize","188","436618","0.0-188.0","14a10632-6351-4cbc-a66d-09f704738d77","","1500","250","stim","","<div class = centerbox><div class = stroop-stim style = ""color:blue"">RED</div></div>","66,71,82","1500","test","true","66","500","incongruent","blue","red","","",""
"-1","-1","poldrack-single-stim","189","437375","0.0-189.0","14a10632-6351-4cbc-a66d-09f704738d77","","500","500","fixation","","<div class = centerbox><div class = fixation>+</div></div>","none","500","test","","","","","","","","",""
"783","71","poldrack-categorize","190","439888","0.0-190.0","14a10632-6351-4cbc-a66d-09f704738d77","","1500","250","stim","","<div class = centerbox><div class = stroop-stim style = ""color:green"">BLUE</div></div>","66,71,82","1500","test","true","71","500","incongruent","green","blue","","",""
"-1","-1","poldrack-single-stim","191","440648","0.0-191.0","14a10632-6351-4cbc-a66d-09f704738d77","","500","500","fixation","","<div class = centerbox><div class = fixation>+</div></div>","none","500","test","","","","","","","","",""
"838","71","poldrack-categorize","192","443162","0.0-192.0","14a10632-6351-4cbc-a66d-09f704738d77","","1500","250","stim","","<div class = centerbox><div class = stroop-stim style = ""color:green"">BLUE</div></div>","66,71,82","1500","test","true","71","500","incongruent","green","blue","","",""
"-1","-1","poldrack-single-stim","193","443922","0.0-193.0","14a10632-6351-4cbc-a66d-09f704738d77","","500","500","fixation","","<div class = centerbox><div class = fixation>+</div></div>","none","500","test","","","","","","","","",""
"548","82","poldrack-categorize","194","446432","0.0-194.0","14a10632-6351-4cbc-a66d-09f704738d77","","1500","250","stim","","<div class = centerbox><div class = stroop-stim style = ""color:red"">RED</div></div>","66,71,82","1500","test","true","82","500","congruent","red","red","","",""
"-1","-1","poldrack-single-stim","195","447190","0.0-195.0","14a10632-6351-4cbc-a66d-09f704738d77","","500","500","fixation","","<div class = centerbox><div class = fixation>+</div></div>","none","500","test","","","","","","","","",""
"854","82","poldrack-categorize","196","449704","0.0-196.0","14a10632-6351-4cbc-a66d-09f704738d77","","1500","250","stim","","<div class = centerbox><div class = stroop-stim style = ""color:red"">RED</div></div>","66,71,82","1500","test","true","82","500","congruent","red","red","","",""
"-1","-1","poldrack-single-stim","197","450464","0.0-197.0","14a10632-6351-4cbc-a66d-09f704738d77","","500","500","fixation","","<div class = centerbox><div class = fixation>+</div></div>","none","500","test","","","","","","","","",""
"574","82","poldrack-categorize","198","452977","0.0-198.0","14a10632-6351-4cbc-a66d-09f704738d77","","1500","250","stim","","<div class = centerbox><div class = stroop-stim style = ""color:red"">RED</div></div>","66,71,82","1500","test","true","82","500","congruent","red","red","","",""
"-1","-1","poldrack-single-stim","199","453738","0.0-199.0","14a10632-6351-4cbc-a66d-09f704738d77","","500","500","fixation","","<div class = centerbox><div class = fixation>+</div></div>","none","500","test","","","","","","","","",""
"611","82","poldrack-categorize","200","456251","0.0-200.0","14a10632-6351-4cbc-a66d-09f704738d77","","1500","250","stim","","<div class = centerbox><div class = stroop-stim style = ""color:red"">RED</div></div>","66,71,82","1500","test","true","82","500","congruent","red","red","","",""
"-1","-1","poldrack-single-stim","201","457012","0.0-201.0","14a10632-6351-4cbc-a66d-09f704738d77","","500","500","fixation","","<div class = centerbox><div class = fixation>+</div></div>","none","500","test","","","","","","","","",""
"866","66","poldrack-categorize","202","459519","0.0-202.0","14a10632-6351-4cbc-a66d-09f704738d77","","1500","250","stim","","<div class = centerbox><div class = stroop-stim style = ""color:blue"">GREEN</div></div>","66,71,82","1500","test","true","66","500","incongruent","blue","green","","",""
"-1","-1","poldrack-single-stim","203","460277","0.0-203.0","14a10632-6351-4cbc-a66d-09f704738d77","","500","500","fixation","","<div class = centerbox><div class = fixation>+</div></div>","none","500","test","","","","","","","","",""
"601","82","poldrack-categorize","204","462787","0.0-204.0","14a10632-6351-4cbc-a66d-09f704738d77","","1500","250","stim","","<div class = centerbox><div class = stroop-stim style = ""color:red"">BLUE</div></div>","66,71,82","1500","test","true","82","500","incongruent","red","blue","","",""
"-1","-1","poldrack-single-stim","205","463548","0.0-205.0","14a10632-6351-4cbc-a66d-09f704738d77","","500","500","fixation","","<div class = centerbox><div class = fixation>+</div></div>","none","500","test","","","","","","","","",""
"641","71","poldrack-categorize","206","466060","0.0-206.0","14a10632-6351-4cbc-a66d-09f704738d77","","1500","250","stim","","<div class = centerbox><div class = stroop-stim style = ""color:green"">GREEN</div></div>","66,71,82","1500","test","true","71","500","congruent","green","green","","",""
"-1","-1","poldrack-single-stim","207","466821","0.0-207.0","14a10632-6351-4cbc-a66d-09f704738d77","","500","500","fixation","","<div class = centerbox><div class = fixation>+</div></div>","none","500","test","","","","","","","","",""
"544","71","poldrack-categorize","208","469335","0.0-208.0","14a10632-6351-4cbc-a66d-09f704738d77","","1500","250","stim","","<div class = centerbox><div class = stroop-stim style = ""color:green"">GREEN</div></div>","66,71,82","1500","test","true","71","500","congruent","green","green","","",""
"-1","-1","poldrack-single-stim","209","470095","0.0-209.0","14a10632-6351-4cbc-a66d-09f704738d77","","500","500","fixation","","<div class = centerbox><div class = fixation>+</div></div>","none","500","test","","","","","","","","",""
"821","66","poldrack-categorize","210","472603","0.0-210.0","14a10632-6351-4cbc-a66d-09f704738d77","","1500","250","stim","","<div class = centerbox><div class = stroop-stim style = ""color:blue"">GREEN</div></div>","66,71,82","1500","test","true","66","500","incongruent","blue","green","","",""
"-1","-1","poldrack-single-stim","211","473363","0.0-211.0","14a10632-6351-4cbc-a66d-09f704738d77","","500","500","fixation","","<div class = centerbox><div class = fixation>+</div></div>","none","500","test","","","","","","","","",""
"787","66","poldrack-categorize","212","475869","0.0-212.0","14a10632-6351-4cbc-a66d-09f704738d77","","1500","250","stim","","<div class = centerbox><div class = stroop-stim style = ""color:blue"">RED</div></div>","66,71,82","1500","test","true","66","500","incongruent","blue","red","","",""
"-1","-1","poldrack-single-stim","213","476626","0.0-213.0","14a10632-6351-4cbc-a66d-09f704738d77","","500","500","fixation","","<div class = centerbox><div class = fixation>+</div></div>","none","500","test","","","","","","","","",""
"546","82","poldrack-categorize","214","479139","0.0-214.0","14a10632-6351-4cbc-a66d-09f704738d77","","1500","250","stim","","<div class = centerbox><div class = stroop-stim style = ""color:red"">RED</div></div>","66,71,82","1500","test","true","82","500","congruent","red","red","","",""
"-1","-1","poldrack-single-stim","215","479899","0.0-215.0","14a10632-6351-4cbc-a66d-09f704738d77","","500","500","fixation","","<div class = centerbox><div class = fixation>+</div></div>","none","500","test","","","","","","","","",""
"863","82","poldrack-categorize","216","482412","0.0-216.0","14a10632-6351-4cbc-a66d-09f704738d77","","1500","250","stim","","<div class = centerbox><div class = stroop-stim style = ""color:red"">BLUE</div></div>","66,71,82","1500","test","true","82","500","incongruent","red","blue","","",""
"-1","-1","poldrack-single-stim","217","483171","0.0-217.0","14a10632-6351-4cbc-a66d-09f704738d77","","500","500","fixation","","<div class = centerbox><div class = fixation>+</div></div>","none","500","test","","","","","","","","",""
"671","82","poldrack-categorize","218","485686","0.0-218.0","14a10632-6351-4cbc-a66d-09f704738d77","","1500","250","stim","","<div class = centerbox><div class = stroop-stim style = ""color:red"">RED</div></div>","66,71,82","1500","test","true","82","500","congruent","red","red","","",""
"-1","-1","poldrack-single-stim","219","486444","0.0-219.0","14a10632-6351-4cbc-a66d-09f704738d77","","500","500","fixation","","<div class = centerbox><div class = fixation>+</div></div>","none","500","test","","","","","","","","",""
"680","82","poldrack-categorize","220","488954","0.0-220.0","14a10632-6351-4cbc-a66d-09f704738d77","","1500","250","stim","","<div class = centerbox><div class = stroop-stim style = ""color:red"">RED</div></div>","66,71,82","1500","test","true","82","500","congruent","red","red","","",""
"-1","-1","poldrack-single-stim","221","489715","0.0-221.0","14a10632-6351-4cbc-a66d-09f704738d77","","500","500","fixation","","<div class = centerbox><div class = fixation>+</div></div>","none","500","test","","","","","","","","",""
"617","82","poldrack-categorize","222","492228","0.0-222.0","14a10632-6351-4cbc-a66d-09f704738d77","","1500","250","stim","","<div class = centerbox><div class = stroop-stim style = ""color:red"">RED</div></div>","66,71,82","1500","test","true","82","500","congruent","red","red","","",""
"-1","-1","poldrack-single-stim","223","492989","0.0-223.0","14a10632-6351-4cbc-a66d-09f704738d77","","500","500","fixation","","<div class = centerbox><div class = fixation>+</div></div>","none","500","test","","","","","","","","",""
"709","71","poldrack-categorize","224","495500","0.0-224.0","14a10632-6351-4cbc-a66d-09f704738d77","","1500","250","stim","","<div class = centerbox><div class = stroop-stim style = ""color:green"">GREEN</div></div>","66,71,82","1500","test","true","71","500","congruent","green","green","","",""
"-1","-1","poldrack-single-stim","225","496257","0.0-225.0","14a10632-6351-4cbc-a66d-09f704738d77","","500","500","fixation","","<div class = centerbox><div class = fixation>+</div></div>","none","500","test","","","","","","","","",""
"512","66","poldrack-categorize","226","498770","0.0-226.0","14a10632-6351-4cbc-a66d-09f704738d77","","1500","250","stim","","<div class = centerbox><div class = stroop-stim style = ""color:blue"">BLUE</div></div>","66,71,82","1500","test","true","66","500","congruent","blue","blue","","",""
"-1","-1","poldrack-single-stim","227","499531","0.0-227.0","14a10632-6351-4cbc-a66d-09f704738d77","","500","500","fixation","","<div class = centerbox><div class = fixation>+</div></div>","none","500","test","","","","","","","","",""
"768","71","poldrack-categorize","228","502044","0.0-228.0","14a10632-6351-4cbc-a66d-09f704738d77","","1500","250","stim","","<div class = centerbox><div class = stroop-stim style = ""color:green"">GREEN</div></div>","66,71,82","1500","test","true","71","500","congruent","green","green","","",""
"-1","-1","poldrack-single-stim","229","502804","0.0-229.0","14a10632-6351-4cbc-a66d-09f704738d77","","500","500","fixation","","<div class = centerbox><div class = fixation>+</div></div>","none","500","test","","","","","","","","",""
"998","66","poldrack-categorize","230","505314","0.0-230.0","14a10632-6351-4cbc-a66d-09f704738d77","","1500","250","stim","","<div class = centerbox><div class = stroop-stim style = ""color:blue"">GREEN</div></div>","66,71,82","1500","test","true","66","500","incongruent","blue","green","","",""
"-1","-1","poldrack-single-stim","231","506072","0.0-231.0","14a10632-6351-4cbc-a66d-09f704738d77","","500","500","fixation","","<div class = centerbox><div class = fixation>+</div></div>","none","500","test","","","","","","","","",""
"648","66","poldrack-categorize","232","508586","0.0-232.0","14a10632-6351-4cbc-a66d-09f704738d77","","1500","250","stim","","<div class = centerbox><div class = stroop-stim style = ""color:blue"">GREEN</div></div>","66,71,82","1500","test","true","66","500","incongruent","blue","green","","",""
"-1","-1","poldrack-single-stim","233","509346","0.0-233.0","14a10632-6351-4cbc-a66d-09f704738d77","","500","500","fixation","","<div class = centerbox><div class = fixation>+</div></div>","none","500","test","","","","","","","","",""
"888","71","poldrack-categorize","234","511859","0.0-234.0","14a10632-6351-4cbc-a66d-09f704738d77","","1500","250","stim","","<div class = centerbox><div class = stroop-stim style = ""color:green"">BLUE</div></div>","66,71,82","1500","test","true","71","500","incongruent","green","blue","","",""
"-1","-1","poldrack-single-stim","235","512620","0.0-235.0","14a10632-6351-4cbc-a66d-09f704738d77","","500","500","fixation","","<div class = centerbox><div class = fixation>+</div></div>","none","500","test","","","","","","","","",""
"581","82","poldrack-categorize","236","515133","0.0-236.0","14a10632-6351-4cbc-a66d-09f704738d77","","1500","250","stim","","<div class = centerbox><div class = stroop-stim style = ""color:red"">RED</div></div>","66,71,82","1500","test","true","82","500","congruent","red","red","","",""
"-1","-1","poldrack-single-stim","237","515894","0.0-237.0","14a10632-6351-4cbc-a66d-09f704738d77","","500","500","fixation","","<div class = centerbox><div class = fixation>+</div></div>","none","500","test","","","","","","","","",""
"604","66","poldrack-categorize","238","518403","0.0-238.0","14a10632-6351-4cbc-a66d-09f704738d77","","1500","250","stim","","<div class = centerbox><div class = stroop-stim style = ""color:blue"">BLUE</div></div>","66,71,82","1500","test","true","66","500","congruent","blue","blue","","",""
"-1","-1","poldrack-single-stim","239","519162","0.0-239.0","14a10632-6351-4cbc-a66d-09f704738d77","","500","500","fixation","","<div class = centerbox><div class = fixation>+</div></div>","none","500","test","","","","","","","","",""
"605","82","poldrack-categorize","240","521675","0.0-240.0","14a10632-6351-4cbc-a66d-09f704738d77","","1500","250","stim","","<div class = centerbox><div class = stroop-stim style = ""color:red"">RED</div></div>","66,71,82","1500","test","true","82","500","congruent","red","red","","",""
"-1","-1","poldrack-single-stim","241","522436","0.0-241.0","14a10632-6351-4cbc-a66d-09f704738d77","","500","500","fixation","","<div class = centerbox><div class = fixation>+</div></div>","none","500","test","","","","","","","","",""
"691","71","poldrack-categorize","242","524949","0.0-242.0","14a10632-6351-4cbc-a66d-09f704738d77","","1500","250","stim","","<div class = centerbox><div class = stroop-stim style = ""color:green"">GREEN</div></div>","66,71,82","1500","test","true","71","500","congruent","green","green","","",""
"-1","-1","poldrack-single-stim","243","525709","0.0-243.0","14a10632-6351-4cbc-a66d-09f704738d77","","500","500","fixation","","<div class = centerbox><div class = fixation>+</div></div>","none","500","test","","","","","","","","",""
"836","66","poldrack-categorize","244","528217","0.0-244.0","14a10632-6351-4cbc-a66d-09f704738d77","","1500","250","stim","","<div class = centerbox><div class = stroop-stim style = ""color:blue"">RED</div></div>","66,71,82","1500","test","true","66","500","incongruent","blue","red","","",""
"27014","","survey-text","245","555491","0.0-246.0","14a10632-6351-4cbc-a66d-09f704738d77","","","","post task questions","","","","","","","","","","","","{""Q0"":""identify the color of the words red blue or green"",""Q1"":""""}","",""
"4285","13","poldrack-text","246","560782","0.0-247.0","14a10632-6351-4cbc-a66d-09f704738d77","<div class = centerbox><p class = center-block-text>Thanks for completing this task!</p><p class = center-block-text>Press <strong>enter</strong> to continue.</p></div>","4285","0","end","","","","","","","","","","","","","stroop","true"
"10139","13","text","247","570958","0.0-248.0","14a10632-6351-4cbc-a66d-09f704738d77","","","","","","","","","","","","","","","","","",""
