rt,key_press,trial_type,trial_index,time_elapsed,internal_node_id,subject,text,block_duration,timing_post_trial,trial_id,view_history,stimulus,possible_responses,stim_duration,exp_stage,correct,correct_response,feedback_duration,condition,stim_color,stim_word,responses,exp_id,credit_var,stim_place,stim_id3073,13,text,0,3074,0.0-0.0,ee984195-e057-498f-9d69-790b207351e0,,,,,,,,,,,,,,,,,,,,2534,13,poldrack-text,1,6614,0.0-1.0-0.0,ee984195-e057-498f-9d69-790b207351e0,<div class = centerbox><p class = center-block-text>Welcome to the experiment. This experiment will take about 8 minutes. Press <strong>enter</strong> to begin.</p></div>,2534,0,instruction,,,,,,,,,,,,,,,,19294,,poldrack-instructions,2,25908,0.0-1.0-1.0,ee984195-e057-498f-9d69-790b207351e0,,,,instruction,"[{""page_index"":0,""viewing_time"":19293}]",,,,,,,,,,,,,,,3052,13,poldrack-text,3,29965,0.0-2.0,ee984195-e057-498f-9d69-790b207351e0,"<div class = centerbox><p class = block-text>We will start with a few practice trials. Remember, press the key corresponding to the <strong>ink</strong> color of the word: ""r"" for words colored red, ""b"" for words colored blue, and ""g"" for words colored green.</p><p class = block-text>Press <strong>enter</strong> to begin practice.</p></div>",3052,1000,practice_intro,,,,,,,,,,,,,,,,-1,-1,poldrack-single-stim,4,31475,0.0-3.0,ee984195-e057-498f-9d69-790b207351e0,,500,500,fixation,,<div class = centerbox><div class = fixation>+</div></div>,none,500,practice,,,,,,,,,,,1483,82,poldrack-categorize,5,33984,0.0-4.0,ee984195-e057-498f-9d69-790b207351e0,,1500,250,stim,,"<div class = centerbox><div class = stroop-stim style = ""color:red"">GREEN</div></div>","66,71,82",1500,practice,TRUE,82,500,incongruent,red,green,,,,,-1,-1,poldrack-single-stim,6,34742,0.0-5.0,ee984195-e057-498f-9d69-790b207351e0,,500,500,fixation,,<div class = centerbox><div class = fixation>+</div></div>,none,500,practice,,,,,,,,,,,549,82,poldrack-categorize,7,37256,0.0-6.0,ee984195-e057-498f-9d69-790b207351e0,,1500,250,stim,,"<div class = centerbox><div class = stroop-stim style = ""color:red"">RED</div></div>","66,71,82",1500,practice,TRUE,82,500,congruent,red,red,,,,,-1,-1,poldrack-single-stim,8,38010,0.0-7.0,ee984195-e057-498f-9d69-790b207351e0,,500,500,fixation,,<div class = centerbox><div class = fixation>+</div></div>,none,500,practice,,,,,,,,,,,641,66,poldrack-categorize,9,40524,0.0-8.0,ee984195-e057-498f-9d69-790b207351e0,,1500,250,stim,,"<div class = centerbox><div class = stroop-stim style = ""color:blue"">GREEN</div></div>","66,71,82",1500,practice,TRUE,66,500,incongruent,blue,green,,,,,-1,-1,poldrack-single-stim,10,41284,0.0-9.0,ee984195-e057-498f-9d69-790b207351e0,,500,500,fixation,,<div class = centerbox><div class = fixation>+</div></div>,none,500,practice,,,,,,,,,,,742,82,poldrack-categorize,11,43797,0.0-10.0,ee984195-e057-498f-9d69-790b207351e0,,1500,250,stim,,"<div class = centerbox><div class = stroop-stim style = ""color:red"">GREEN</div></div>","66,71,82",1500,practice,TRUE,82,500,incongruent,red,green,,,,,-1,-1,poldrack-single-stim,12,44553,0.0-11.0,ee984195-e057-498f-9d69-790b207351e0,,500,500,fixation,,<div class = centerbox><div class = fixation>+</div></div>,none,500,practice,,,,,,,,,,,1002,66,poldrack-categorize,13,47065,0.0-12.0,ee984195-e057-498f-9d69-790b207351e0,,1500,250,stim,,"<div class = centerbox><div class = stroop-stim style = ""color:blue"">RED</div></div>","66,71,82",1500,practice,TRUE,66,500,incongruent,blue,red,,,,,-1,-1,poldrack-single-stim,14,47826,0.0-13.0,ee984195-e057-498f-9d69-790b207351e0,,500,500,fixation,,<div class = centerbox><div class = fixation>+</div></div>,none,500,practice,,,,,,,,,,,897,82,poldrack-categorize,15,50339,0.0-14.0,ee984195-e057-498f-9d69-790b207351e0,,1500,250,stim,,"<div class = centerbox><div class = stroop-stim style = ""color:red"">BLUE</div></div>","66,71,82",1500,practice,TRUE,82,500,incongruent,red,blue,,,,,-1,-1,poldrack-single-stim,16,51100,0.0-15.0,ee984195-e057-498f-9d69-790b207351e0,,500,500,fixation,,<div class = centerbox><div class = fixation>+</div></div>,none,500,practice,,,,,,,,,,,894,82,poldrack-categorize,17,53613,0.0-16.0,ee984195-e057-498f-9d69-790b207351e0,,1500,250,stim,,"<div class = centerbox><div class = stroop-stim style = ""color:red"">RED</div></div>","66,71,82",1500,practice,TRUE,82,500,congruent,red,red,,,,,-1,-1,poldrack-single-stim,18,54373,0.0-17.0,ee984195-e057-498f-9d69-790b207351e0,,500,500,fixation,,<div class = centerbox><div class = fixation>+</div></div>,none,500,practice,,,,,,,,,,,820,82,poldrack-categorize,19,56887,0.0-18.0,ee984195-e057-498f-9d69-790b207351e0,,1500,250,stim,,"<div class = centerbox><div class = stroop-stim style = ""color:red"">BLUE</div></div>","66,71,82",1500,practice,TRUE,82,500,incongruent,red,blue,,,,,-1,-1,poldrack-single-stim,20,57641,0.0-19.0,ee984195-e057-498f-9d69-790b207351e0,,500,500,fixation,,<div class = centerbox><div class = fixation>+</div></div>,none,500,practice,,,,,,,,,,,520,71,poldrack-categorize,21,60155,0.0-20.0,ee984195-e057-498f-9d69-790b207351e0,,1500,250,stim,,"<div class = centerbox><div class = stroop-stim style = ""color:green"">RED</div></div>","66,71,82",1500,practice,TRUE,71,500,incongruent,green,red,,,,,-1,-1,poldrack-single-stim,22,60915,0.0-21.0,ee984195-e057-498f-9d69-790b207351e0,,500,500,fixation,,<div class = centerbox><div class = fixation>+</div></div>,none,500,practice,,,,,,,,,,,526,82,poldrack-categorize,23,63428,0.0-22.0,ee984195-e057-498f-9d69-790b207351e0,,1500,250,stim,,"<div class = centerbox><div class = stroop-stim style = ""color:red"">RED</div></div>","66,71,82",1500,practice,TRUE,82,500,congruent,red,red,,,,,-1,-1,poldrack-single-stim,24,64189,0.0-23.0,ee984195-e057-498f-9d69-790b207351e0,,500,500,fixation,,<div class = centerbox><div class = fixation>+</div></div>,none,500,practice,,,,,,,,,,,724,71,poldrack-categorize,25,66702,0.0-24.0,ee984195-e057-498f-9d69-790b207351e0,,1500,250,stim,,"<div class = centerbox><div class = stroop-stim style = ""color:green"">GREEN</div></div>","66,71,82",1500,practice,TRUE,71,500,congruent,green,green,,,,,-1,-1,poldrack-single-stim,26,67463,0.0-25.0,ee984195-e057-498f-9d69-790b207351e0,,500,500,fixation,,<div class = centerbox><div class = fixation>+</div></div>,none,500,practice,,,,,,,,,,,608,71,poldrack-categorize,27,69976,0.0-26.0,ee984195-e057-498f-9d69-790b207351e0,,1500,250,stim,,"<div class = centerbox><div class = stroop-stim style = ""color:green"">RED</div></div>","66,71,82",1500,practice,TRUE,71,500,incongruent,green,red,,,,,-1,-1,poldrack-single-stim,28,70737,0.0-27.0,ee984195-e057-498f-9d69-790b207351e0,,500,500,fixation,,<div class = centerbox><div class = fixation>+</div></div>,none,500,practice,,,,,,,,,,,721,66,poldrack-categorize,29,73247,0.0-28.0,ee984195-e057-498f-9d69-790b207351e0,,1500,250,stim,,"<div class = centerbox><div class = stroop-stim style = ""color:blue"">GREEN</div></div>","66,71,82",1500,practice,TRUE,66,500,incongruent,blue,green,,,,,-1,-1,poldrack-single-stim,30,74005,0.0-29.0,ee984195-e057-498f-9d69-790b207351e0,,500,500,fixation,,<div class = centerbox><div class = fixation>+</div></div>,none,500,practice,,,,,,,,,,,628,71,poldrack-categorize,31,76518,0.0-30.0,ee984195-e057-498f-9d69-790b207351e0,,1500,250,stim,,"<div class = centerbox><div class = stroop-stim style = ""color:green"">BLUE</div></div>","66,71,82",1500,practice,TRUE,71,500,incongruent,green,blue,,,,,-1,-1,poldrack-single-stim,32,77279,0.0-31.0,ee984195-e057-498f-9d69-790b207351e0,,500,500,fixation,,<div class = centerbox><div class = fixation>+</div></div>,none,500,practice,,,,,,,,,,,588,66,poldrack-categorize,33,79792,0.0-32.0,ee984195-e057-498f-9d69-790b207351e0,,1500,250,stim,,"<div class = centerbox><div class = stroop-stim style = ""color:blue"">BLUE</div></div>","66,71,82",1500,practice,TRUE,66,500,congruent,blue,blue,,,,,-1,-1,poldrack-single-stim,34,80548,0.0-33.0,ee984195-e057-498f-9d69-790b207351e0,,500,500,fixation,,<div class = centerbox><div class = fixation>+</div></div>,none,500,practice,,,,,,,,,,,499,66,poldrack-categorize,35,83058,0.0-34.0,ee984195-e057-498f-9d69-790b207351e0,,1500,250,stim,,"<div class = centerbox><div class = stroop-stim style = ""color:blue"">BLUE</div></div>","66,71,82",1500,practice,TRUE,66,500,congruent,blue,blue,,,,,-1,-1,poldrack-single-stim,36,83814,0.0-35.0,ee984195-e057-498f-9d69-790b207351e0,,500,500,fixation,,<div class = centerbox><div class = fixation>+</div></div>,none,500,practice,,,,,,,,,,,562,71,poldrack-categorize,37,86328,0.0-36.0,ee984195-e057-498f-9d69-790b207351e0,,1500,250,stim,,"<div class = centerbox><div class = stroop-stim style = ""color:green"">GREEN</div></div>","66,71,82",1500,practice,TRUE,71,500,congruent,green,green,,,,,-1,-1,poldrack-single-stim,38,87088,0.0-37.0,ee984195-e057-498f-9d69-790b207351e0,,500,500,fixation,,<div class = centerbox><div class = fixation>+</div></div>,none,500,practice,,,,,,,,,,,552,66,poldrack-categorize,39,89601,0.0-38.0,ee984195-e057-498f-9d69-790b207351e0,,1500,250,stim,,"<div class = centerbox><div class = stroop-stim style = ""color:blue"">RED</div></div>","66,71,82",1500,practice,TRUE,66,500,incongruent,blue,red,,,,,-1,-1,poldrack-single-stim,40,90362,0.0-39.0,ee984195-e057-498f-9d69-790b207351e0,,500,500,fixation,,<div class = centerbox><div class = fixation>+</div></div>,none,500,practice,,,,,,,,,,,389,66,poldrack-categorize,41,92875,0.0-40.0,ee984195-e057-498f-9d69-790b207351e0,,1500,250,stim,,"<div class = centerbox><div class = stroop-stim style = ""color:blue"">BLUE</div></div>","66,71,82",1500,practice,TRUE,66,500,congruent,blue,blue,,,,,-1,-1,poldrack-single-stim,42,93636,0.0-41.0,ee984195-e057-498f-9d69-790b207351e0,,500,500,fixation,,<div class = centerbox><div class = fixation>+</div></div>,none,500,practice,,,,,,,,,,,564,82,poldrack-categorize,43,96143,0.0-42.0,ee984195-e057-498f-9d69-790b207351e0,,1500,250,stim,,"<div class = centerbox><div class = stroop-stim style = ""color:red"">RED</div></div>","66,71,82",1500,practice,TRUE,82,500,congruent,red,red,,,,,-1,-1,poldrack-single-stim,44,96904,0.0-43.0,ee984195-e057-498f-9d69-790b207351e0,,500,500,fixation,,<div class = centerbox><div class = fixation>+</div></div>,none,500,practice,,,,,,,,,,,591,71,poldrack-categorize,45,99417,0.0-44.0,ee984195-e057-498f-9d69-790b207351e0,,1500,250,stim,,"<div class = centerbox><div class = stroop-stim style = ""color:green"">GREEN</div></div>","66,71,82",1500,practice,TRUE,71,500,congruent,green,green,,,,,-1,-1,poldrack-single-stim,46,100176,0.0-45.0,ee984195-e057-498f-9d69-790b207351e0,,500,500,fixation,,<div class = centerbox><div class = fixation>+</div></div>,none,500,practice,,,,,,,,,,,1086,71,poldrack-categorize,47,102691,0.0-46.0,ee984195-e057-498f-9d69-790b207351e0,,1500,250,stim,,"<div class = centerbox><div class = stroop-stim style = ""color:green"">BLUE</div></div>","66,71,82",1500,practice,TRUE,71,500,incongruent,green,blue,,,,,-1,-1,poldrack-single-stim,48,103449,0.0-47.0,ee984195-e057-498f-9d69-790b207351e0,,500,500,fixation,,<div class = centerbox><div class = fixation>+</div></div>,none,500,practice,,,,,,,,,,,583,66,poldrack-categorize,49,105959,0.0-48.0,ee984195-e057-498f-9d69-790b207351e0,,1500,250,stim,,"<div class = centerbox><div class = stroop-stim style = ""color:blue"">BLUE</div></div>","66,71,82",1500,practice,TRUE,66,500,congruent,blue,blue,,,,,-1,-1,poldrack-single-stim,50,106720,0.0-49.0,ee984195-e057-498f-9d69-790b207351e0,,500,500,fixation,,<div class = centerbox><div class = fixation>+</div></div>,none,500,practice,,,,,,,,,,,615,71,poldrack-categorize,51,109233,0.0-50.0,ee984195-e057-498f-9d69-790b207351e0,,1500,250,stim,,"<div class = centerbox><div class = stroop-stim style = ""color:green"">GREEN</div></div>","66,71,82",1500,practice,TRUE,71,500,congruent,green,green,,,,,1983,13,poldrack-text,52,111471,0.0-52.0,ee984195-e057-498f-9d69-790b207351e0,<div class = centerbox><p class = center-block-text>We will now start the test. Respond exactly like you did during practice.</p><p class = center-block-text>Press <strong>enter</strong> to begin the test.</p></div>,1983,1000,test_intro,,,,,,,,,,,,,,,,-1,-1,poldrack-single-stim,53,112977,0.0-53.0,ee984195-e057-498f-9d69-790b207351e0,,500,500,fixation,,<div class = centerbox><div class = fixation>+</div></div>,none,500,test,,,,,,,,,,,551,71,poldrack-categorize,54,115484,0.0-54.0,ee984195-e057-498f-9d69-790b207351e0,,1500,250,stim,,"<div class = centerbox><div class = stroop-stim style = ""color:green"">BLUE</div></div>","66,71,82",1500,test,TRUE,71,500,incongruent,green,blue,,,,,-1,-1,poldrack-single-stim,55,116245,0.0-55.0,ee984195-e057-498f-9d69-790b207351e0,,500,500,fixation,,<div class = centerbox><div class = fixation>+</div></div>,none,500,test,,,,,,,,,,,482,71,poldrack-categorize,56,118752,0.0-56.0,ee984195-e057-498f-9d69-790b207351e0,,1500,250,stim,,"<div class = centerbox><div class = stroop-stim style = ""color:green"">GREEN</div></div>","66,71,82",1500,test,TRUE,71,500,congruent,green,green,,,,,-1,-1,poldrack-single-stim,57,119511,0.0-57.0,ee984195-e057-498f-9d69-790b207351e0,,500,500,fixation,,<div class = centerbox><div class = fixation>+</div></div>,none,500,test,,,,,,,,,,,518,66,poldrack-categorize,58,122020,0.0-58.0,ee984195-e057-498f-9d69-790b207351e0,,1500,250,stim,,"<div class = centerbox><div class = stroop-stim style = ""color:blue"">RED</div></div>","66,71,82",1500,test,TRUE,66,500,incongruent,blue,red,,,,,-1,-1,poldrack-single-stim,59,122781,0.0-59.0,ee984195-e057-498f-9d69-790b207351e0,,500,500,fixation,,<div class = centerbox><div class = fixation>+</div></div>,none,500,test,,,,,,,,,,,600,82,poldrack-categorize,60,125292,0.0-60.0,ee984195-e057-498f-9d69-790b207351e0,,1500,250,stim,,"<div class = centerbox><div class = stroop-stim style = ""color:red"">RED</div></div>","66,71,82",1500,test,TRUE,82,500,congruent,red,red,,,,,-1,-1,poldrack-single-stim,61,126049,0.0-61.0,ee984195-e057-498f-9d69-790b207351e0,,500,500,fixation,,<div class = centerbox><div class = fixation>+</div></div>,none,500,test,,,,,,,,,,,580,71,poldrack-categorize,62,128562,0.0-62.0,ee984195-e057-498f-9d69-790b207351e0,,1500,250,stim,,"<div class = centerbox><div class = stroop-stim style = ""color:green"">GREEN</div></div>","66,71,82",1500,test,TRUE,71,500,congruent,green,green,,,,,-1,-1,poldrack-single-stim,63,129323,0.0-63.0,ee984195-e057-498f-9d69-790b207351e0,,500,500,fixation,,<div class = centerbox><div class = fixation>+</div></div>,none,500,test,,,,,,,,,,,635,66,poldrack-categorize,64,131836,0.0-64.0,ee984195-e057-498f-9d69-790b207351e0,,1500,250,stim,,"<div class = centerbox><div class = stroop-stim style = ""color:blue"">GREEN</div></div>","66,71,82",1500,test,TRUE,66,500,incongruent,blue,green,,,,,-1,-1,poldrack-single-stim,65,132596,0.0-65.0,ee984195-e057-498f-9d69-790b207351e0,,500,500,fixation,,<div class = centerbox><div class = fixation>+</div></div>,none,500,test,,,,,,,,,,,648,71,poldrack-categorize,66,135110,0.0-66.0,ee984195-e057-498f-9d69-790b207351e0,,1500,250,stim,,"<div class = centerbox><div class = stroop-stim style = ""color:green"">GREEN</div></div>","66,71,82",1500,test,TRUE,71,500,congruent,green,green,,,,,-1,-1,poldrack-single-stim,67,135870,0.0-67.0,ee984195-e057-498f-9d69-790b207351e0,,500,500,fixation,,<div class = centerbox><div class = fixation>+</div></div>,none,500,test,,,,,,,,,,,959,82,poldrack-categorize,68,138378,0.0-68.0,ee984195-e057-498f-9d69-790b207351e0,,1500,250,stim,,"<div class = centerbox><div class = stroop-stim style = ""color:red"">GREEN</div></div>","66,71,82",1500,test,TRUE,82,500,incongruent,red,green,,,,,-1,-1,poldrack-single-stim,69,139138,0.0-69.0,ee984195-e057-498f-9d69-790b207351e0,,500,500,fixation,,<div class = centerbox><div class = fixation>+</div></div>,none,500,test,,,,,,,,,,,739,71,poldrack-categorize,70,141651,0.0-70.0,ee984195-e057-498f-9d69-790b207351e0,,1500,250,stim,,"<div class = centerbox><div class = stroop-stim style = ""color:green"">GREEN</div></div>","66,71,82",1500,test,TRUE,71,500,congruent,green,green,,,,,-1,-1,poldrack-single-stim,71,142412,0.0-71.0,ee984195-e057-498f-9d69-790b207351e0,,500,500,fixation,,<div class = centerbox><div class = fixation>+</div></div>,none,500,test,,,,,,,,,,,521,71,poldrack-categorize,72,144925,0.0-72.0,ee984195-e057-498f-9d69-790b207351e0,,1500,250,stim,,"<div class = centerbox><div class = stroop-stim style = ""color:green"">GREEN</div></div>","66,71,82",1500,test,TRUE,71,500,congruent,green,green,,,,,-1,-1,poldrack-single-stim,73,145686,0.0-73.0,ee984195-e057-498f-9d69-790b207351e0,,500,500,fixation,,<div class = centerbox><div class = fixation>+</div></div>,none,500,test,,,,,,,,,,,806,82,poldrack-categorize,74,148199,0.0-74.0,ee984195-e057-498f-9d69-790b207351e0,,1500,250,stim,,"<div class = centerbox><div class = stroop-stim style = ""color:red"">GREEN</div></div>","66,71,82",1500,test,TRUE,82,500,incongruent,red,green,,,,,-1,-1,poldrack-single-stim,75,148960,0.0-75.0,ee984195-e057-498f-9d69-790b207351e0,,500,500,fixation,,<div class = centerbox><div class = fixation>+</div></div>,none,500,test,,,,,,,,,,,597,82,poldrack-categorize,76,151470,0.0-76.0,ee984195-e057-498f-9d69-790b207351e0,,1500,250,stim,,"<div class = centerbox><div class = stroop-stim style = ""color:red"">RED</div></div>","66,71,82",1500,test,TRUE,82,500,congruent,red,red,,,,,-1,-1,poldrack-single-stim,77,152228,0.0-77.0,ee984195-e057-498f-9d69-790b207351e0,,500,500,fixation,,<div class = centerbox><div class = fixation>+</div></div>,none,500,test,,,,,,,,,,,635,66,poldrack-categorize,78,154741,0.0-78.0,ee984195-e057-498f-9d69-790b207351e0,,1500,250,stim,,"<div class = centerbox><div class = stroop-stim style = ""color:red"">BLUE</div></div>","66,71,82",1500,test,FALSE,82,500,incongruent,red,blue,,,,,-1,-1,poldrack-single-stim,79,155498,0.0-79.0,ee984195-e057-498f-9d69-790b207351e0,,500,500,fixation,,<div class = centerbox><div class = fixation>+</div></div>,none,500,test,,,,,,,,,,,1259,71,poldrack-categorize,80,158009,0.0-80.0,ee984195-e057-498f-9d69-790b207351e0,,1500,250,stim,,"<div class = centerbox><div class = stroop-stim style = ""color:green"">RED</div></div>","66,71,82",1500,test,TRUE,71,500,incongruent,green,red,,,,,-1,-1,poldrack-single-stim,81,158770,0.0-81.0,ee984195-e057-498f-9d69-790b207351e0,,500,500,fixation,,<div class = centerbox><div class = fixation>+</div></div>,none,500,test,,,,,,,,,,,892,71,poldrack-categorize,82,161283,0.0-82.0,ee984195-e057-498f-9d69-790b207351e0,,1500,250,stim,,"<div class = centerbox><div class = stroop-stim style = ""color:green"">BLUE</div></div>","66,71,82",1500,test,TRUE,71,500,incongruent,green,blue,,,,,-1,-1,poldrack-single-stim,83,162043,0.0-83.0,ee984195-e057-498f-9d69-790b207351e0,,500,500,fixation,,<div class = centerbox><div class = fixation>+</div></div>,none,500,test,,,,,,,,,,,609,66,poldrack-categorize,84,164557,0.0-84.0,ee984195-e057-498f-9d69-790b207351e0,,1500,250,stim,,"<div class = centerbox><div class = stroop-stim style = ""color:blue"">BLUE</div></div>","66,71,82",1500,test,TRUE,66,500,congruent,blue,blue,,,,,-1,-1,poldrack-single-stim,85,165318,0.0-85.0,ee984195-e057-498f-9d69-790b207351e0,,500,500,fixation,,<div class = centerbox><div class = fixation>+</div></div>,none,500,test,,,,,,,,,,,679,71,poldrack-categorize,86,167825,0.0-86.0,ee984195-e057-498f-9d69-790b207351e0,,1500,250,stim,,"<div class = centerbox><div class = stroop-stim style = ""color:green"">BLUE</div></div>","66,71,82",1500,test,TRUE,71,500,incongruent,green,blue,,,,,-1,-1,poldrack-single-stim,87,168585,0.0-87.0,ee984195-e057-498f-9d69-790b207351e0,,500,500,fixation,,<div class = centerbox><div class = fixation>+</div></div>,none,500,test,,,,,,,,,,,1137,66,poldrack-categorize,88,171096,0.0-88.0,ee984195-e057-498f-9d69-790b207351e0,,1500,250,stim,,"<div class = centerbox><div class = stroop-stim style = ""color:blue"">RED</div></div>","66,71,82",1500,test,TRUE,66,500,incongruent,blue,red,,,,,-1,-1,poldrack-single-stim,89,171853,0.0-89.0,ee984195-e057-498f-9d69-790b207351e0,,500,500,fixation,,<div class = centerbox><div class = fixation>+</div></div>,none,500,test,,,,,,,,,,,965,71,poldrack-categorize,90,174366,0.0-90.0,ee984195-e057-498f-9d69-790b207351e0,,1500,250,stim,,"<div class = centerbox><div class = stroop-stim style = ""color:green"">RED</div></div>","66,71,82",1500,test,TRUE,71,500,incongruent,green,red,,,,,-1,-1,poldrack-single-stim,91,175127,0.0-91.0,ee984195-e057-498f-9d69-790b207351e0,,500,500,fixation,,<div class = centerbox><div class = fixation>+</div></div>,none,500,test,,,,,,,,,,,627,71,poldrack-categorize,92,177640,0.0-92.0,ee984195-e057-498f-9d69-790b207351e0,,1500,250,stim,,"<div class = centerbox><div class = stroop-stim style = ""color:green"">GREEN</div></div>","66,71,82",1500,test,TRUE,71,500,congruent,green,green,,,,,-1,-1,poldrack-single-stim,93,178401,0.0-93.0,ee984195-e057-498f-9d69-790b207351e0,,500,500,fixation,,<div class = centerbox><div class = fixation>+</div></div>,none,500,test,,,,,,,,,,,554,71,poldrack-categorize,94,180914,0.0-94.0,ee984195-e057-498f-9d69-790b207351e0,,1500,250,stim,,"<div class = centerbox><div class = stroop-stim style = ""color:green"">GREEN</div></div>","66,71,82",1500,test,TRUE,71,500,congruent,green,green,,,,,-1,-1,poldrack-single-stim,95,181672,0.0-95.0,ee984195-e057-498f-9d69-790b207351e0,,500,500,fixation,,<div class = centerbox><div class = fixation>+</div></div>,none,500,test,,,,,,,,,,,626,71,poldrack-categorize,96,184182,0.0-96.0,ee984195-e057-498f-9d69-790b207351e0,,1500,250,stim,,"<div class = centerbox><div class = stroop-stim style = ""color:green"">BLUE</div></div>","66,71,82",1500,test,TRUE,71,500,incongruent,green,blue,,,,,-1,-1,poldrack-single-stim,97,184943,0.0-97.0,ee984195-e057-498f-9d69-790b207351e0,,500,500,fixation,,<div class = centerbox><div class = fixation>+</div></div>,none,500,test,,,,,,,,,,,731,66,poldrack-categorize,98,187456,0.0-98.0,ee984195-e057-498f-9d69-790b207351e0,,1500,250,stim,,"<div class = centerbox><div class = stroop-stim style = ""color:blue"">GREEN</div></div>","66,71,82",1500,test,TRUE,66,500,incongruent,blue,green,,,,,-1,-1,poldrack-single-stim,99,188216,0.0-99.0,ee984195-e057-498f-9d69-790b207351e0,,500,500,fixation,,<div class = centerbox><div class = fixation>+</div></div>,none,500,test,,,,,,,,,,,985,82,poldrack-categorize,100,190730,0.0-100.0,ee984195-e057-498f-9d69-790b207351e0,,1500,250,stim,,"<div class = centerbox><div class = stroop-stim style = ""color:red"">GREEN</div></div>","66,71,82",1500,test,TRUE,82,500,incongruent,red,green,,,,,-1,-1,poldrack-single-stim,101,191490,0.0-101.0,ee984195-e057-498f-9d69-790b207351e0,,500,500,fixation,,<div class = centerbox><div class = fixation>+</div></div>,none,500,test,,,,,,,,,,,784,71,poldrack-categorize,102,194001,0.0-102.0,ee984195-e057-498f-9d69-790b207351e0,,1500,250,stim,,"<div class = centerbox><div class = stroop-stim style = ""color:green"">RED</div></div>","66,71,82",1500,test,TRUE,71,500,incongruent,green,red,,,,,-1,-1,poldrack-single-stim,103,194758,0.0-103.0,ee984195-e057-498f-9d69-790b207351e0,,500,500,fixation,,<div class = centerbox><div class = fixation>+</div></div>,none,500,test,,,,,,,,,,,595,82,poldrack-categorize,104,197271,0.0-104.0,ee984195-e057-498f-9d69-790b207351e0,,1500,250,stim,,"<div class = centerbox><div class = stroop-stim style = ""color:red"">RED</div></div>","66,71,82",1500,test,TRUE,82,500,congruent,red,red,,,,,-1,-1,poldrack-single-stim,105,198032,0.0-105.0,ee984195-e057-498f-9d69-790b207351e0,,500,500,fixation,,<div class = centerbox><div class = fixation>+</div></div>,none,500,test,,,,,,,,,,,722,82,poldrack-categorize,106,200545,0.0-106.0,ee984195-e057-498f-9d69-790b207351e0,,1500,250,stim,,"<div class = centerbox><div class = stroop-stim style = ""color:red"">RED</div></div>","66,71,82",1500,test,TRUE,82,500,congruent,red,red,,,,,-1,-1,poldrack-single-stim,107,201300,0.0-107.0,ee984195-e057-498f-9d69-790b207351e0,,500,500,fixation,,<div class = centerbox><div class = fixation>+</div></div>,none,500,test,,,,,,,,,,,460,66,poldrack-categorize,108,203813,0.0-108.0,ee984195-e057-498f-9d69-790b207351e0,,1500,250,stim,,"<div class = centerbox><div class = stroop-stim style = ""color:blue"">BLUE</div></div>","66,71,82",1500,test,TRUE,66,500,congruent,blue,blue,,,,,-1,-1,poldrack-single-stim,109,204574,0.0-109.0,ee984195-e057-498f-9d69-790b207351e0,,500,500,fixation,,<div class = centerbox><div class = fixation>+</div></div>,none,500,test,,,,,,,,,,,748,71,poldrack-categorize,110,207087,0.0-110.0,ee984195-e057-498f-9d69-790b207351e0,,1500,250,stim,,"<div class = centerbox><div class = stroop-stim style = ""color:green"">BLUE</div></div>","66,71,82",1500,test,TRUE,71,500,incongruent,green,blue,,,,,-1,-1,poldrack-single-stim,111,207848,0.0-111.0,ee984195-e057-498f-9d69-790b207351e0,,500,500,fixation,,<div class = centerbox><div class = fixation>+</div></div>,none,500,test,,,,,,,,,,,674,71,poldrack-categorize,112,210361,0.0-112.0,ee984195-e057-498f-9d69-790b207351e0,,1500,250,stim,,"<div class = centerbox><div class = stroop-stim style = ""color:green"">BLUE</div></div>","66,71,82",1500,test,TRUE,71,500,incongruent,green,blue,,,,,-1,-1,poldrack-single-stim,113,211116,0.0-113.0,ee984195-e057-498f-9d69-790b207351e0,,500,500,fixation,,<div class = centerbox><div class = fixation>+</div></div>,none,500,test,,,,,,,,,,,700,82,poldrack-categorize,114,213629,0.0-114.0,ee984195-e057-498f-9d69-790b207351e0,,1500,250,stim,,"<div class = centerbox><div class = stroop-stim style = ""color:red"">GREEN</div></div>","66,71,82",1500,test,TRUE,82,500,incongruent,red,green,,,,,-1,-1,poldrack-single-stim,115,214389,0.0-115.0,ee984195-e057-498f-9d69-790b207351e0,,500,500,fixation,,<div class = centerbox><div class = fixation>+</div></div>,none,500,test,,,,,,,,,,,676,71,poldrack-categorize,116,216903,0.0-116.0,ee984195-e057-498f-9d69-790b207351e0,,1500,250,stim,,"<div class = centerbox><div class = stroop-stim style = ""color:green"">GREEN</div></div>","66,71,82",1500,test,TRUE,71,500,congruent,green,green,,,,,-1,-1,poldrack-single-stim,117,217663,0.0-117.0,ee984195-e057-498f-9d69-790b207351e0,,500,500,fixation,,<div class = centerbox><div class = fixation>+</div></div>,none,500,test,,,,,,,,,,,786,71,poldrack-categorize,118,220176,0.0-118.0,ee984195-e057-498f-9d69-790b207351e0,,1500,250,stim,,"<div class = centerbox><div class = stroop-stim style = ""color:green"">BLUE</div></div>","66,71,82",1500,test,TRUE,71,500,incongruent,green,blue,,,,,-1,-1,poldrack-single-stim,119,220937,0.0-119.0,ee984195-e057-498f-9d69-790b207351e0,,500,500,fixation,,<div class = centerbox><div class = fixation>+</div></div>,none,500,test,,,,,,,,,,,590,66,poldrack-categorize,120,223450,0.0-120.0,ee984195-e057-498f-9d69-790b207351e0,,1500,250,stim,,"<div class = centerbox><div class = stroop-stim style = ""color:blue"">GREEN</div></div>","66,71,82",1500,test,TRUE,66,500,incongruent,blue,green,,,,,-1,-1,poldrack-single-stim,121,224205,0.0-121.0,ee984195-e057-498f-9d69-790b207351e0,,500,500,fixation,,<div class = centerbox><div class = fixation>+</div></div>,none,500,test,,,,,,,,,,,929,71,poldrack-categorize,122,226718,0.0-122.0,ee984195-e057-498f-9d69-790b207351e0,,1500,250,stim,,"<div class = centerbox><div class = stroop-stim style = ""color:green"">GREEN</div></div>","66,71,82",1500,test,TRUE,71,500,congruent,green,green,,,,,-1,-1,poldrack-single-stim,123,227479,0.0-123.0,ee984195-e057-498f-9d69-790b207351e0,,500,500,fixation,,<div class = centerbox><div class = fixation>+</div></div>,none,500,test,,,,,,,,,,,553,66,poldrack-categorize,124,229992,0.0-124.0,ee984195-e057-498f-9d69-790b207351e0,,1500,250,stim,,"<div class = centerbox><div class = stroop-stim style = ""color:blue"">BLUE</div></div>","66,71,82",1500,test,TRUE,66,500,congruent,blue,blue,,,,,-1,-1,poldrack-single-stim,125,230753,0.0-125.0,ee984195-e057-498f-9d69-790b207351e0,,500,500,fixation,,<div class = centerbox><div class = fixation>+</div></div>,none,500,test,,,,,,,,,,,862,82,poldrack-categorize,126,233266,0.0-126.0,ee984195-e057-498f-9d69-790b207351e0,,1500,250,stim,,"<div class = centerbox><div class = stroop-stim style = ""color:red"">GREEN</div></div>","66,71,82",1500,test,TRUE,82,500,incongruent,red,green,,,,,-1,-1,poldrack-single-stim,127,234023,0.0-127.0,ee984195-e057-498f-9d69-790b207351e0,,500,500,fixation,,<div class = centerbox><div class = fixation>+</div></div>,none,500,test,,,,,,,,,,,705,82,poldrack-categorize,128,236533,0.0-128.0,ee984195-e057-498f-9d69-790b207351e0,,1500,250,stim,,"<div class = centerbox><div class = stroop-stim style = ""color:red"">GREEN</div></div>","66,71,82",1500,test,TRUE,82,500,incongruent,red,green,,,,,-1,-1,poldrack-single-stim,129,237289,0.0-129.0,ee984195-e057-498f-9d69-790b207351e0,,500,500,fixation,,<div class = centerbox><div class = fixation>+</div></div>,none,500,test,,,,,,,,,,,637,82,poldrack-categorize,130,239802,0.0-130.0,ee984195-e057-498f-9d69-790b207351e0,,1500,250,stim,,"<div class = centerbox><div class = stroop-stim style = ""color:red"">RED</div></div>","66,71,82",1500,test,TRUE,82,500,congruent,red,red,,,,,-1,-1,poldrack-single-stim,131,240563,0.0-131.0,ee984195-e057-498f-9d69-790b207351e0,,500,500,fixation,,<div class = centerbox><div class = fixation>+</div></div>,none,500,test,,,,,,,,,,,660,82,poldrack-categorize,132,243076,0.0-132.0,ee984195-e057-498f-9d69-790b207351e0,,1500,250,stim,,"<div class = centerbox><div class = stroop-stim style = ""color:red"">GREEN</div></div>","66,71,82",1500,test,TRUE,82,500,incongruent,red,green,,,,,-1,-1,poldrack-single-stim,133,243835,0.0-133.0,ee984195-e057-498f-9d69-790b207351e0,,500,500,fixation,,<div class = centerbox><div class = fixation>+</div></div>,none,500,test,,,,,,,,,,,571,66,poldrack-categorize,134,246349,0.0-134.0,ee984195-e057-498f-9d69-790b207351e0,,1500,250,stim,,"<div class = centerbox><div class = stroop-stim style = ""color:blue"">GREEN</div></div>","66,71,82",1500,test,TRUE,66,500,incongruent,blue,green,,,,,-1,-1,poldrack-single-stim,135,247110,0.0-135.0,ee984195-e057-498f-9d69-790b207351e0,,500,500,fixation,,<div class = centerbox><div class = fixation>+</div></div>,none,500,test,,,,,,,,,,,607,71,poldrack-categorize,136,249623,0.0-136.0,ee984195-e057-498f-9d69-790b207351e0,,1500,250,stim,,"<div class = centerbox><div class = stroop-stim style = ""color:green"">GREEN</div></div>","66,71,82",1500,test,TRUE,71,500,congruent,green,green,,,,,-1,-1,poldrack-single-stim,137,250383,0.0-137.0,ee984195-e057-498f-9d69-790b207351e0,,500,500,fixation,,<div class = centerbox><div class = fixation>+</div></div>,none,500,test,,,,,,,,,,,542,66,poldrack-categorize,138,252897,0.0-138.0,ee984195-e057-498f-9d69-790b207351e0,,1500,250,stim,,"<div class = centerbox><div class = stroop-stim style = ""color:blue"">BLUE</div></div>","66,71,82",1500,test,TRUE,66,500,congruent,blue,blue,,,,,-1,-1,poldrack-single-stim,139,253658,0.0-139.0,ee984195-e057-498f-9d69-790b207351e0,,500,500,fixation,,<div class = centerbox><div class = fixation>+</div></div>,none,500,test,,,,,,,,,,,492,66,poldrack-categorize,140,256165,0.0-140.0,ee984195-e057-498f-9d69-790b207351e0,,1500,250,stim,,"<div class = centerbox><div class = stroop-stim style = ""color:blue"">BLUE</div></div>","66,71,82",1500,test,TRUE,66,500,congruent,blue,blue,,,,,-1,-1,poldrack-single-stim,141,256926,0.0-141.0,ee984195-e057-498f-9d69-790b207351e0,,500,500,fixation,,<div class = centerbox><div class = fixation>+</div></div>,none,500,test,,,,,,,,,,,439,66,poldrack-categorize,142,259439,0.0-142.0,ee984195-e057-498f-9d69-790b207351e0,,1500,250,stim,,"<div class = centerbox><div class = stroop-stim style = ""color:blue"">GREEN</div></div>","66,71,82",1500,test,TRUE,66,500,incongruent,blue,green,,,,,-1,-1,poldrack-single-stim,143,260199,0.0-143.0,ee984195-e057-498f-9d69-790b207351e0,,500,500,fixation,,<div class = centerbox><div class = fixation>+</div></div>,none,500,test,,,,,,,,,,,813,71,poldrack-categorize,144,262713,0.0-144.0,ee984195-e057-498f-9d69-790b207351e0,,1500,250,stim,,"<div class = centerbox><div class = stroop-stim style = ""color:green"">RED</div></div>","66,71,82",1500,test,TRUE,71,500,incongruent,green,red,,,,,-1,-1,poldrack-single-stim,145,263473,0.0-145.0,ee984195-e057-498f-9d69-790b207351e0,,500,500,fixation,,<div class = centerbox><div class = fixation>+</div></div>,none,500,test,,,,,,,,,,,501,82,poldrack-categorize,146,265987,0.0-146.0,ee984195-e057-498f-9d69-790b207351e0,,1500,250,stim,,"<div class = centerbox><div class = stroop-stim style = ""color:red"">RED</div></div>","66,71,82",1500,test,TRUE,82,500,congruent,red,red,,,,,-1,-1,poldrack-single-stim,147,266743,0.0-147.0,ee984195-e057-498f-9d69-790b207351e0,,500,500,fixation,,<div class = centerbox><div class = fixation>+</div></div>,none,500,test,,,,,,,,,,,604,82,poldrack-categorize,148,269255,0.0-148.0,ee984195-e057-498f-9d69-790b207351e0,,1500,250,stim,,"<div class = centerbox><div class = stroop-stim style = ""color:red"">BLUE</div></div>","66,71,82",1500,test,TRUE,82,500,incongruent,red,blue,,,,,-1,-1,poldrack-single-stim,149,270015,0.0-149.0,ee984195-e057-498f-9d69-790b207351e0,,500,500,fixation,,<div class = centerbox><div class = fixation>+</div></div>,none,500,test,,,,,,,,,,,527,66,poldrack-categorize,150,272525,0.0-150.0,ee984195-e057-498f-9d69-790b207351e0,,1500,250,stim,,"<div class = centerbox><div class = stroop-stim style = ""color:blue"">BLUE</div></div>","66,71,82",1500,test,TRUE,66,500,congruent,blue,blue,,,,,-1,-1,poldrack-single-stim,151,273283,0.0-151.0,ee984195-e057-498f-9d69-790b207351e0,,500,500,fixation,,<div class = centerbox><div class = fixation>+</div></div>,none,500,test,,,,,,,,,,,648,82,poldrack-categorize,152,275797,0.0-152.0,ee984195-e057-498f-9d69-790b207351e0,,1500,250,stim,,"<div class = centerbox><div class = stroop-stim style = ""color:red"">BLUE</div></div>","66,71,82",1500,test,TRUE,82,500,incongruent,red,blue,,,,,-1,-1,poldrack-single-stim,153,276557,0.0-153.0,ee984195-e057-498f-9d69-790b207351e0,,500,500,fixation,,<div class = centerbox><div class = fixation>+</div></div>,none,500,test,,,,,,,,,,,502,82,poldrack-categorize,154,279064,0.0-154.0,ee984195-e057-498f-9d69-790b207351e0,,1500,250,stim,,"<div class = centerbox><div class = stroop-stim style = ""color:red"">RED</div></div>","66,71,82",1500,test,TRUE,82,500,congruent,red,red,,,,,-1,-1,poldrack-single-stim,155,279823,0.0-155.0,ee984195-e057-498f-9d69-790b207351e0,,500,500,fixation,,<div class = centerbox><div class = fixation>+</div></div>,none,500,test,,,,,,,,,,,442,66,poldrack-categorize,156,282338,0.0-156.0,ee984195-e057-498f-9d69-790b207351e0,,1500,250,stim,,"<div class = centerbox><div class = stroop-stim style = ""color:blue"">BLUE</div></div>","66,71,82",1500,test,TRUE,66,500,congruent,blue,blue,,,,,-1,-1,poldrack-single-stim,157,283099,0.0-157.0,ee984195-e057-498f-9d69-790b207351e0,,500,500,fixation,,<div class = centerbox><div class = fixation>+</div></div>,none,500,test,,,,,,,,,,,434,66,poldrack-categorize,158,285612,0.0-158.0,ee984195-e057-498f-9d69-790b207351e0,,1500,250,stim,,"<div class = centerbox><div class = stroop-stim style = ""color:blue"">RED</div></div>","66,71,82",1500,test,TRUE,66,500,incongruent,blue,red,,,,,-1,-1,poldrack-single-stim,159,286372,0.0-159.0,ee984195-e057-498f-9d69-790b207351e0,,500,500,fixation,,<div class = centerbox><div class = fixation>+</div></div>,none,500,test,,,,,,,,,,,519,66,poldrack-categorize,160,288886,0.0-160.0,ee984195-e057-498f-9d69-790b207351e0,,1500,250,stim,,"<div class = centerbox><div class = stroop-stim style = ""color:blue"">BLUE</div></div>","66,71,82",1500,test,TRUE,66,500,congruent,blue,blue,,,,,-1,-1,poldrack-single-stim,161,289647,0.0-161.0,ee984195-e057-498f-9d69-790b207351e0,,500,500,fixation,,<div class = centerbox><div class = fixation>+</div></div>,none,500,test,,,,,,,,,,,444,66,poldrack-categorize,162,292160,0.0-162.0,ee984195-e057-498f-9d69-790b207351e0,,1500,250,stim,,"<div class = centerbox><div class = stroop-stim style = ""color:blue"">BLUE</div></div>","66,71,82",1500,test,TRUE,66,500,congruent,blue,blue,,,,,-1,-1,poldrack-single-stim,163,292920,0.0-163.0,ee984195-e057-498f-9d69-790b207351e0,,500,500,fixation,,<div class = centerbox><div class = fixation>+</div></div>,none,500,test,,,,,,,,,,,764,66,poldrack-categorize,164,295433,0.0-164.0,ee984195-e057-498f-9d69-790b207351e0,,1500,250,stim,,"<div class = centerbox><div class = stroop-stim style = ""color:blue"">RED</div></div>","66,71,82",1500,test,TRUE,66,500,incongruent,blue,red,,,,,-1,-1,poldrack-single-stim,165,296194,0.0-165.0,ee984195-e057-498f-9d69-790b207351e0,,500,500,fixation,,<div class = centerbox><div class = fixation>+</div></div>,none,500,test,,,,,,,,,,,482,66,poldrack-categorize,166,298705,0.0-166.0,ee984195-e057-498f-9d69-790b207351e0,,1500,250,stim,,"<div class = centerbox><div class = stroop-stim style = ""color:blue"">BLUE</div></div>","66,71,82",1500,test,TRUE,66,500,congruent,blue,blue,,,,,-1,-1,poldrack-single-stim,167,299462,0.0-167.0,ee984195-e057-498f-9d69-790b207351e0,,500,500,fixation,,<div class = centerbox><div class = fixation>+</div></div>,none,500,test,,,,,,,,,,,772,71,poldrack-categorize,168,301975,0.0-168.0,ee984195-e057-498f-9d69-790b207351e0,,1500,250,stim,,"<div class = centerbox><div class = stroop-stim style = ""color:green"">RED</div></div>","66,71,82",1500,test,TRUE,71,500,incongruent,green,red,,,,,-1,-1,poldrack-single-stim,169,302736,0.0-169.0,ee984195-e057-498f-9d69-790b207351e0,,500,500,fixation,,<div class = centerbox><div class = fixation>+</div></div>,none,500,test,,,,,,,,,,,611,82,poldrack-categorize,170,305249,0.0-170.0,ee984195-e057-498f-9d69-790b207351e0,,1500,250,stim,,"<div class = centerbox><div class = stroop-stim style = ""color:red"">RED</div></div>","66,71,82",1500,test,TRUE,82,500,congruent,red,red,,,,,-1,-1,poldrack-single-stim,171,306009,0.0-171.0,ee984195-e057-498f-9d69-790b207351e0,,500,500,fixation,,<div class = centerbox><div class = fixation>+</div></div>,none,500,test,,,,,,,,,,,609,66,poldrack-categorize,172,308519,0.0-172.0,ee984195-e057-498f-9d69-790b207351e0,,1500,250,stim,,"<div class = centerbox><div class = stroop-stim style = ""color:blue"">RED</div></div>","66,71,82",1500,test,TRUE,66,500,incongruent,blue,red,,,,,-1,-1,poldrack-single-stim,173,309276,0.0-173.0,ee984195-e057-498f-9d69-790b207351e0,,500,500,fixation,,<div class = centerbox><div class = fixation>+</div></div>,none,500,test,,,,,,,,,,,621,66,poldrack-categorize,174,311791,0.0-174.0,ee984195-e057-498f-9d69-790b207351e0,,1500,250,stim,,"<div class = centerbox><div class = stroop-stim style = ""color:blue"">GREEN</div></div>","66,71,82",1500,test,TRUE,66,500,incongruent,blue,green,,,,,-1,-1,poldrack-single-stim,175,312551,0.0-175.0,ee984195-e057-498f-9d69-790b207351e0,,500,500,fixation,,<div class = centerbox><div class = fixation>+</div></div>,none,500,test,,,,,,,,,,,778,82,poldrack-categorize,176,315065,0.0-176.0,ee984195-e057-498f-9d69-790b207351e0,,1500,250,stim,,"<div class = centerbox><div class = stroop-stim style = ""color:red"">GREEN</div></div>","66,71,82",1500,test,TRUE,82,500,incongruent,red,green,,,,,-1,-1,poldrack-single-stim,177,315825,0.0-177.0,ee984195-e057-498f-9d69-790b207351e0,,500,500,fixation,,<div class = centerbox><div class = fixation>+</div></div>,none,500,test,,,,,,,,,,,599,82,poldrack-categorize,178,318337,0.0-178.0,ee984195-e057-498f-9d69-790b207351e0,,1500,250,stim,,"<div class = centerbox><div class = stroop-stim style = ""color:red"">BLUE</div></div>","66,71,82",1500,test,TRUE,82,500,incongruent,red,blue,,,,,-1,-1,poldrack-single-stim,179,319093,0.0-179.0,ee984195-e057-498f-9d69-790b207351e0,,500,500,fixation,,<div class = centerbox><div class = fixation>+</div></div>,none,500,test,,,,,,,,,,,843,66,poldrack-categorize,180,321606,0.0-180.0,ee984195-e057-498f-9d69-790b207351e0,,1500,250,stim,,"<div class = centerbox><div class = stroop-stim style = ""color:blue"">BLUE</div></div>","66,71,82",1500,test,TRUE,66,500,congruent,blue,blue,,,,,-1,-1,poldrack-single-stim,181,322367,0.0-181.0,ee984195-e057-498f-9d69-790b207351e0,,500,500,fixation,,<div class = centerbox><div class = fixation>+</div></div>,none,500,test,,,,,,,,,,,628,82,poldrack-categorize,182,324874,0.0-182.0,ee984195-e057-498f-9d69-790b207351e0,,1500,250,stim,,"<div class = centerbox><div class = stroop-stim style = ""color:red"">RED</div></div>","66,71,82",1500,test,TRUE,82,500,congruent,red,red,,,,,-1,-1,poldrack-single-stim,183,325635,0.0-183.0,ee984195-e057-498f-9d69-790b207351e0,,500,500,fixation,,<div class = centerbox><div class = fixation>+</div></div>,none,500,test,,,,,,,,,,,479,66,poldrack-categorize,184,328146,0.0-184.0,ee984195-e057-498f-9d69-790b207351e0,,1500,250,stim,,"<div class = centerbox><div class = stroop-stim style = ""color:blue"">BLUE</div></div>","66,71,82",1500,test,TRUE,66,500,congruent,blue,blue,,,,,-1,-1,poldrack-single-stim,185,328903,0.0-185.0,ee984195-e057-498f-9d69-790b207351e0,,500,500,fixation,,<div class = centerbox><div class = fixation>+</div></div>,none,500,test,,,,,,,,,,,616,71,poldrack-categorize,186,331416,0.0-186.0,ee984195-e057-498f-9d69-790b207351e0,,1500,250,stim,,"<div class = centerbox><div class = stroop-stim style = ""color:green"">GREEN</div></div>","66,71,82",1500,test,TRUE,71,500,congruent,green,green,,,,,-1,-1,poldrack-single-stim,187,332171,0.0-187.0,ee984195-e057-498f-9d69-790b207351e0,,500,500,fixation,,<div class = centerbox><div class = fixation>+</div></div>,none,500,test,,,,,,,,,,,973,82,poldrack-categorize,188,334684,0.0-188.0,ee984195-e057-498f-9d69-790b207351e0,,1500,250,stim,,"<div class = centerbox><div class = stroop-stim style = ""color:red"">RED</div></div>","66,71,82",1500,test,TRUE,82,500,congruent,red,red,,,,,-1,-1,poldrack-single-stim,189,335445,0.0-189.0,ee984195-e057-498f-9d69-790b207351e0,,500,500,fixation,,<div class = centerbox><div class = fixation>+</div></div>,none,500,test,,,,,,,,,,,684,71,poldrack-categorize,190,337958,0.0-190.0,ee984195-e057-498f-9d69-790b207351e0,,1500,250,stim,,"<div class = centerbox><div class = stroop-stim style = ""color:green"">RED</div></div>","66,71,82",1500,test,TRUE,71,500,incongruent,green,red,,,,,-1,-1,poldrack-single-stim,191,338719,0.0-191.0,ee984195-e057-498f-9d69-790b207351e0,,500,500,fixation,,<div class = centerbox><div class = fixation>+</div></div>,none,500,test,,,,,,,,,,,713,82,poldrack-categorize,192,341232,0.0-192.0,ee984195-e057-498f-9d69-790b207351e0,,1500,250,stim,,"<div class = centerbox><div class = stroop-stim style = ""color:red"">RED</div></div>","66,71,82",1500,test,TRUE,82,500,congruent,red,red,,,,,-1,-1,poldrack-single-stim,193,341992,0.0-193.0,ee984195-e057-498f-9d69-790b207351e0,,500,500,fixation,,<div class = centerbox><div class = fixation>+</div></div>,none,500,test,,,,,,,,,,,625,82,poldrack-categorize,194,344506,0.0-194.0,ee984195-e057-498f-9d69-790b207351e0,,1500,250,stim,,"<div class = centerbox><div class = stroop-stim style = ""color:red"">BLUE</div></div>","66,71,82",1500,test,TRUE,82,500,incongruent,red,blue,,,,,-1,-1,poldrack-single-stim,195,345266,0.0-195.0,ee984195-e057-498f-9d69-790b207351e0,,500,500,fixation,,<div class = centerbox><div class = fixation>+</div></div>,none,500,test,,,,,,,,,,,429,66,poldrack-categorize,196,347779,0.0-196.0,ee984195-e057-498f-9d69-790b207351e0,,1500,250,stim,,"<div class = centerbox><div class = stroop-stim style = ""color:blue"">BLUE</div></div>","66,71,82",1500,test,TRUE,66,500,congruent,blue,blue,,,,,-1,-1,poldrack-single-stim,197,348540,0.0-197.0,ee984195-e057-498f-9d69-790b207351e0,,500,500,fixation,,<div class = centerbox><div class = fixation>+</div></div>,none,500,test,,,,,,,,,,,852,71,poldrack-categorize,198,351053,0.0-198.0,ee984195-e057-498f-9d69-790b207351e0,,1500,250,stim,,"<div class = centerbox><div class = stroop-stim style = ""color:green"">RED</div></div>","66,71,82",1500,test,TRUE,71,500,incongruent,green,red,,,,,-1,-1,poldrack-single-stim,199,351814,0.0-199.0,ee984195-e057-498f-9d69-790b207351e0,,500,500,fixation,,<div class = centerbox><div class = fixation>+</div></div>,none,500,test,,,,,,,,,,,506,82,poldrack-categorize,200,354327,0.0-200.0,ee984195-e057-498f-9d69-790b207351e0,,1500,250,stim,,"<div class = centerbox><div class = stroop-stim style = ""color:red"">RED</div></div>","66,71,82",1500,test,TRUE,82,500,congruent,red,red,,,,,-1,-1,poldrack-single-stim,201,355084,0.0-201.0,ee984195-e057-498f-9d69-790b207351e0,,500,500,fixation,,<div class = centerbox><div class = fixation>+</div></div>,none,500,test,,,,,,,,,,,484,66,poldrack-categorize,202,357595,0.0-202.0,ee984195-e057-498f-9d69-790b207351e0,,1500,250,stim,,"<div class = centerbox><div class = stroop-stim style = ""color:blue"">BLUE</div></div>","66,71,82",1500,test,TRUE,66,500,congruent,blue,blue,,,,,-1,-1,poldrack-single-stim,203,358356,0.0-203.0,ee984195-e057-498f-9d69-790b207351e0,,500,500,fixation,,<div class = centerbox><div class = fixation>+</div></div>,none,500,test,,,,,,,,,,,539,82,poldrack-categorize,204,360869,0.0-204.0,ee984195-e057-498f-9d69-790b207351e0,,1500,250,stim,,"<div class = centerbox><div class = stroop-stim style = ""color:red"">RED</div></div>","66,71,82",1500,test,TRUE,82,500,congruent,red,red,,,,,-1,-1,poldrack-single-stim,205,361629,0.0-205.0,ee984195-e057-498f-9d69-790b207351e0,,500,500,fixation,,<div class = centerbox><div class = fixation>+</div></div>,none,500,test,,,,,,,,,,,546,71,poldrack-categorize,206,364137,0.0-206.0,ee984195-e057-498f-9d69-790b207351e0,,1500,250,stim,,"<div class = centerbox><div class = stroop-stim style = ""color:green"">GREEN</div></div>","66,71,82",1500,test,TRUE,71,500,congruent,green,green,,,,,-1,-1,poldrack-single-stim,207,364897,0.0-207.0,ee984195-e057-498f-9d69-790b207351e0,,500,500,fixation,,<div class = centerbox><div class = fixation>+</div></div>,none,500,test,,,,,,,,,,,548,71,poldrack-categorize,208,367411,0.0-208.0,ee984195-e057-498f-9d69-790b207351e0,,1500,250,stim,,"<div class = centerbox><div class = stroop-stim style = ""color:green"">GREEN</div></div>","66,71,82",1500,test,TRUE,71,500,congruent,green,green,,,,,-1,-1,poldrack-single-stim,209,368171,0.0-209.0,ee984195-e057-498f-9d69-790b207351e0,,500,500,fixation,,<div class = centerbox><div class = fixation>+</div></div>,none,500,test,,,,,,,,,,,492,71,poldrack-categorize,210,370679,0.0-210.0,ee984195-e057-498f-9d69-790b207351e0,,1500,250,stim,,"<div class = centerbox><div class = stroop-stim style = ""color:green"">GREEN</div></div>","66,71,82",1500,test,TRUE,71,500,congruent,green,green,,,,,-1,-1,poldrack-single-stim,211,371439,0.0-211.0,ee984195-e057-498f-9d69-790b207351e0,,500,500,fixation,,<div class = centerbox><div class = fixation>+</div></div>,none,500,test,,,,,,,,,,,526,66,poldrack-categorize,212,373953,0.0-212.0,ee984195-e057-498f-9d69-790b207351e0,,1500,250,stim,,"<div class = centerbox><div class = stroop-stim style = ""color:blue"">GREEN</div></div>","66,71,82",1500,test,TRUE,66,500,incongruent,blue,green,,,,,-1,-1,poldrack-single-stim,213,374711,0.0-213.0,ee984195-e057-498f-9d69-790b207351e0,,500,500,fixation,,<div class = centerbox><div class = fixation>+</div></div>,none,500,test,,,,,,,,,,,750,66,poldrack-categorize,214,377226,0.0-214.0,ee984195-e057-498f-9d69-790b207351e0,,1500,250,stim,,"<div class = centerbox><div class = stroop-stim style = ""color:blue"">RED</div></div>","66,71,82",1500,test,TRUE,66,500,incongruent,blue,red,,,,,-1,-1,poldrack-single-stim,215,377987,0.0-215.0,ee984195-e057-498f-9d69-790b207351e0,,500,500,fixation,,<div class = centerbox><div class = fixation>+</div></div>,none,500,test,,,,,,,,,,,484,66,poldrack-categorize,216,380500,0.0-216.0,ee984195-e057-498f-9d69-790b207351e0,,1500,250,stim,,"<div class = centerbox><div class = stroop-stim style = ""color:blue"">BLUE</div></div>","66,71,82",1500,test,TRUE,66,500,congruent,blue,blue,,,,,-1,-1,poldrack-single-stim,217,381261,0.0-217.0,ee984195-e057-498f-9d69-790b207351e0,,500,500,fixation,,<div class = centerbox><div class = fixation>+</div></div>,none,500,test,,,,,,,,,,,626,82,poldrack-categorize,218,383774,0.0-218.0,ee984195-e057-498f-9d69-790b207351e0,,1500,250,stim,,"<div class = centerbox><div class = stroop-stim style = ""color:red"">RED</div></div>","66,71,82",1500,test,TRUE,82,500,congruent,red,red,,,,,-1,-1,poldrack-single-stim,219,384534,0.0-219.0,ee984195-e057-498f-9d69-790b207351e0,,500,500,fixation,,<div class = centerbox><div class = fixation>+</div></div>,none,500,test,,,,,,,,,,,473,66,poldrack-categorize,220,387048,0.0-220.0,ee984195-e057-498f-9d69-790b207351e0,,1500,250,stim,,"<div class = centerbox><div class = stroop-stim style = ""color:blue"">RED</div></div>","66,71,82",1500,test,TRUE,66,500,incongruent,blue,red,,,,,-1,-1,poldrack-single-stim,221,387808,0.0-221.0,ee984195-e057-498f-9d69-790b207351e0,,500,500,fixation,,<div class = centerbox><div class = fixation>+</div></div>,none,500,test,,,,,,,,,,,756,82,poldrack-categorize,222,390322,0.0-222.0,ee984195-e057-498f-9d69-790b207351e0,,1500,250,stim,,"<div class = centerbox><div class = stroop-stim style = ""color:red"">RED</div></div>","66,71,82",1500,test,TRUE,82,500,congruent,red,red,,,,,-1,-1,poldrack-single-stim,223,391082,0.0-223.0,ee984195-e057-498f-9d69-790b207351e0,,500,500,fixation,,<div class = centerbox><div class = fixation>+</div></div>,none,500,test,,,,,,,,,,,523,66,poldrack-categorize,224,393592,0.0-224.0,ee984195-e057-498f-9d69-790b207351e0,,1500,250,stim,,"<div class = centerbox><div class = stroop-stim style = ""color:red"">BLUE</div></div>","66,71,82",1500,test,FALSE,82,500,incongruent,red,blue,,,,,-1,-1,poldrack-single-stim,225,394350,0.0-225.0,ee984195-e057-498f-9d69-790b207351e0,,500,500,fixation,,<div class = centerbox><div class = fixation>+</div></div>,none,500,test,,,,,,,,,,,557,66,poldrack-categorize,226,396863,0.0-226.0,ee984195-e057-498f-9d69-790b207351e0,,1500,250,stim,,"<div class = centerbox><div class = stroop-stim style = ""color:blue"">BLUE</div></div>","66,71,82",1500,test,TRUE,66,500,congruent,blue,blue,,,,,-1,-1,poldrack-single-stim,227,397624,0.0-227.0,ee984195-e057-498f-9d69-790b207351e0,,500,500,fixation,,<div class = centerbox><div class = fixation>+</div></div>,none,500,test,,,,,,,,,,,877,82,poldrack-categorize,228,400137,0.0-228.0,ee984195-e057-498f-9d69-790b207351e0,,1500,250,stim,,"<div class = centerbox><div class = stroop-stim style = ""color:red"">BLUE</div></div>","66,71,82",1500,test,TRUE,82,500,incongruent,red,blue,,,,,-1,-1,poldrack-single-stim,229,400898,0.0-229.0,ee984195-e057-498f-9d69-790b207351e0,,500,500,fixation,,<div class = centerbox><div class = fixation>+</div></div>,none,500,test,,,,,,,,,,,554,82,poldrack-categorize,230,403411,0.0-230.0,ee984195-e057-498f-9d69-790b207351e0,,1500,250,stim,,"<div class = centerbox><div class = stroop-stim style = ""color:red"">BLUE</div></div>","66,71,82",1500,test,TRUE,82,500,incongruent,red,blue,,,,,-1,-1,poldrack-single-stim,231,404172,0.0-231.0,ee984195-e057-498f-9d69-790b207351e0,,500,500,fixation,,<div class = centerbox><div class = fixation>+</div></div>,none,500,test,,,,,,,,,,,1049,66,poldrack-categorize,232,406685,0.0-232.0,ee984195-e057-498f-9d69-790b207351e0,,1500,250,stim,,"<div class = centerbox><div class = stroop-stim style = ""color:blue"">GREEN</div></div>","66,71,82",1500,test,TRUE,66,500,incongruent,blue,green,,,,,-1,-1,poldrack-single-stim,233,407445,0.0-233.0,ee984195-e057-498f-9d69-790b207351e0,,500,500,fixation,,<div class = centerbox><div class = fixation>+</div></div>,none,500,test,,,,,,,,,,,832,71,poldrack-categorize,234,409959,0.0-234.0,ee984195-e057-498f-9d69-790b207351e0,,1500,250,stim,,"<div class = centerbox><div class = stroop-stim style = ""color:green"">GREEN</div></div>","66,71,82",1500,test,TRUE,71,500,congruent,green,green,,,,,-1,-1,poldrack-single-stim,235,410716,0.0-235.0,ee984195-e057-498f-9d69-790b207351e0,,500,500,fixation,,<div class = centerbox><div class = fixation>+</div></div>,none,500,test,,,,,,,,,,,722,82,poldrack-categorize,236,413227,0.0-236.0,ee984195-e057-498f-9d69-790b207351e0,,1500,250,stim,,"<div class = centerbox><div class = stroop-stim style = ""color:red"">RED</div></div>","66,71,82",1500,test,TRUE,82,500,congruent,red,red,,,,,-1,-1,poldrack-single-stim,237,413987,0.0-237.0,ee984195-e057-498f-9d69-790b207351e0,,500,500,fixation,,<div class = centerbox><div class = fixation>+</div></div>,none,500,test,,,,,,,,,,,1401,71,poldrack-categorize,238,416495,0.0-238.0,ee984195-e057-498f-9d69-790b207351e0,,1500,250,stim,,"<div class = centerbox><div class = stroop-stim style = ""color:green"">BLUE</div></div>","66,71,82",1500,test,TRUE,71,500,incongruent,green,blue,,,,,-1,-1,poldrack-single-stim,239,417256,0.0-239.0,ee984195-e057-498f-9d69-790b207351e0,,500,500,fixation,,<div class = centerbox><div class = fixation>+</div></div>,none,500,test,,,,,,,,,,,729,71,poldrack-categorize,240,419768,0.0-240.0,ee984195-e057-498f-9d69-790b207351e0,,1500,250,stim,,"<div class = centerbox><div class = stroop-stim style = ""color:green"">GREEN</div></div>","66,71,82",1500,test,TRUE,71,500,congruent,green,green,,,,,-1,-1,poldrack-single-stim,241,420529,0.0-241.0,ee984195-e057-498f-9d69-790b207351e0,,500,500,fixation,,<div class = centerbox><div class = fixation>+</div></div>,none,500,test,,,,,,,,,,,730,71,poldrack-categorize,242,423042,0.0-242.0,ee984195-e057-498f-9d69-790b207351e0,,1500,250,stim,,"<div class = centerbox><div class = stroop-stim style = ""color:green"">RED</div></div>","66,71,82",1500,test,TRUE,71,500,incongruent,green,red,,,,,-1,-1,poldrack-single-stim,243,423803,0.0-243.0,ee984195-e057-498f-9d69-790b207351e0,,500,500,fixation,,<div class = centerbox><div class = fixation>+</div></div>,none,500,test,,,,,,,,,,,929,66,poldrack-categorize,244,426316,0.0-244.0,ee984195-e057-498f-9d69-790b207351e0,,1500,250,stim,,"<div class = centerbox><div class = stroop-stim style = ""color:blue"">RED</div></div>","66,71,82",1500,test,TRUE,66,500,incongruent,blue,red,,,,,34388,,survey-text,245,460965,0.0-246.0,ee984195-e057-498f-9d69-790b207351e0,,,,post task questions,,,,,,,,,,,,"{""Q0"":""Depict a color shown verses the color spelled out."",""Q1"":""N/A""}",,,,1808,13,poldrack-text,246,463776,0.0-247.0,ee984195-e057-498f-9d69-790b207351e0,<div class = centerbox><p class = center-block-text>Thanks for completing this task!</p><p class = center-block-text>Press <strong>enter</strong> to continue.</p></div>,1808,0,end,,,,,,,,,,,,,stroop,TRUE,,2034,13,poldrack-text,247,465848,0.0-248.0-0.0,ee984195-e057-498f-9d69-790b207351e0,<div class = centerbox><p class = center-block-text>Done with instructions. Press <strong>enter</strong> to continue.</p></div>,2034,0,instruction,,,,,,,,,,,,,,,,