"rt","key_press","trial_type","trial_index","time_elapsed","internal_node_id","subject","text","block_duration","timing_post_trial","trial_id","view_history","stimulus","possible_responses","stim_duration","exp_stage","correct","correct_response","feedback_duration","condition","stim_color","stim_word","responses","exp_id","credit_var"
"1850","13","text","0","1853","0.0-0.0","47817a4f-79b4-4ca3-84bf-af5e79014ae5","","","","","","","","","","","","","","","","","",""
"10197","13","poldrack-text","1","13058","0.0-1.0-0.0","47817a4f-79b4-4ca3-84bf-af5e79014ae5","<div class = centerbox><p class = center-block-text>Welcome to the experiment. This experiment will take about 8 minutes. Press <strong>enter</strong> to begin.</p></div>","10197","0","instruction","","","","","","","","","","","","","",""
"16213","","poldrack-instructions","2","29271","0.0-1.0-1.0","47817a4f-79b4-4ca3-84bf-af5e79014ae5","","","","instruction","[{""page_index"":0,""viewing_time"":16212}]","","","","","","","","","","","","",""
"2514","13","poldrack-text","3","32790","0.0-2.0","47817a4f-79b4-4ca3-84bf-af5e79014ae5","<div class = centerbox><p class = block-text>We will start with a few practice trials. Remember, press the key corresponding to the <strong>ink</strong> color of the word: ""r"" for words colored red, ""b"" for words colored blue, and ""g"" for words colored green.</p><p class = block-text>Press <strong>enter</strong> to begin practice.</p></div>","2514","1000","practice_intro","","","","","","","","","","","","","",""
"-1","-1","poldrack-single-stim","4","34298","0.0-3.0","47817a4f-79b4-4ca3-84bf-af5e79014ae5","","500","500","fixation","","<div class = centerbox><div class = fixation>+</div></div>","none","500","practice","","","","","","","","",""
"1128","66","poldrack-categorize","5","36807","0.0-4.0","47817a4f-79b4-4ca3-84bf-af5e79014ae5","","1500","250","stim","","<div class = centerbox><div class = stroop-stim style = ""color:blue"">GREEN</div></div>","66,71,82","1500","practice","true","66","500","incongruent","blue","green","","",""
"-1","-1","poldrack-single-stim","6","37565","0.0-5.0","47817a4f-79b4-4ca3-84bf-af5e79014ae5","","500","500","fixation","","<div class = centerbox><div class = fixation>+</div></div>","none","500","practice","","","","","","","","",""
"558","66","poldrack-categorize","7","40078","0.0-6.0","47817a4f-79b4-4ca3-84bf-af5e79014ae5","","1500","250","stim","","<div class = centerbox><div class = stroop-stim style = ""color:blue"">RED</div></div>","66,71,82","1500","practice","true","66","500","incongruent","blue","red","","",""
"-1","-1","poldrack-single-stim","8","40838","0.0-7.0","47817a4f-79b4-4ca3-84bf-af5e79014ae5","","500","500","fixation","","<div class = centerbox><div class = fixation>+</div></div>","none","500","practice","","","","","","","","",""
"796","82","poldrack-categorize","9","43351","0.0-8.0","47817a4f-79b4-4ca3-84bf-af5e79014ae5","","1500","250","stim","","<div class = centerbox><div class = stroop-stim style = ""color:red"">BLUE</div></div>","66,71,82","1500","practice","true","82","500","incongruent","red","blue","","",""
"-1","-1","poldrack-single-stim","10","44107","0.0-9.0","47817a4f-79b4-4ca3-84bf-af5e79014ae5","","500","500","fixation","","<div class = centerbox><div class = fixation>+</div></div>","none","500","practice","","","","","","","","",""
"530","82","poldrack-categorize","11","46620","0.0-10.0","47817a4f-79b4-4ca3-84bf-af5e79014ae5","","1500","250","stim","","<div class = centerbox><div class = stroop-stim style = ""color:red"">RED</div></div>","66,71,82","1500","practice","true","82","500","congruent","red","red","","",""
"-1","-1","poldrack-single-stim","12","47381","0.0-11.0","47817a4f-79b4-4ca3-84bf-af5e79014ae5","","500","500","fixation","","<div class = centerbox><div class = fixation>+</div></div>","none","500","practice","","","","","","","","",""
"463","82","poldrack-categorize","13","49894","0.0-12.0","47817a4f-79b4-4ca3-84bf-af5e79014ae5","","1500","250","stim","","<div class = centerbox><div class = stroop-stim style = ""color:red"">RED</div></div>","66,71,82","1500","practice","true","82","500","congruent","red","red","","",""
"-1","-1","poldrack-single-stim","14","50655","0.0-13.0","47817a4f-79b4-4ca3-84bf-af5e79014ae5","","500","500","fixation","","<div class = centerbox><div class = fixation>+</div></div>","none","500","practice","","","","","","","","",""
"733","71","poldrack-categorize","15","53168","0.0-14.0","47817a4f-79b4-4ca3-84bf-af5e79014ae5","","1500","250","stim","","<div class = centerbox><div class = stroop-stim style = ""color:green"">BLUE</div></div>","66,71,82","1500","practice","true","71","500","incongruent","green","blue","","",""
"-1","-1","poldrack-single-stim","16","53928","0.0-15.0","47817a4f-79b4-4ca3-84bf-af5e79014ae5","","500","500","fixation","","<div class = centerbox><div class = fixation>+</div></div>","none","500","practice","","","","","","","","",""
"630","82","poldrack-categorize","17","56442","0.0-16.0","47817a4f-79b4-4ca3-84bf-af5e79014ae5","","1500","250","stim","","<div class = centerbox><div class = stroop-stim style = ""color:red"">BLUE</div></div>","66,71,82","1500","practice","true","82","500","incongruent","red","blue","","",""
"-1","-1","poldrack-single-stim","18","57202","0.0-17.0","47817a4f-79b4-4ca3-84bf-af5e79014ae5","","500","500","fixation","","<div class = centerbox><div class = fixation>+</div></div>","none","500","practice","","","","","","","","",""
"530","66","poldrack-categorize","19","59715","0.0-18.0","47817a4f-79b4-4ca3-84bf-af5e79014ae5","","1500","250","stim","","<div class = centerbox><div class = stroop-stim style = ""color:blue"">BLUE</div></div>","66,71,82","1500","practice","true","66","500","congruent","blue","blue","","",""
"-1","-1","poldrack-single-stim","20","60476","0.0-19.0","47817a4f-79b4-4ca3-84bf-af5e79014ae5","","500","500","fixation","","<div class = centerbox><div class = fixation>+</div></div>","none","500","practice","","","","","","","","",""
"598","82","poldrack-categorize","21","62988","0.0-20.0","47817a4f-79b4-4ca3-84bf-af5e79014ae5","","1500","250","stim","","<div class = centerbox><div class = stroop-stim style = ""color:red"">RED</div></div>","66,71,82","1500","practice","true","82","500","congruent","red","red","","",""
"-1","-1","poldrack-single-stim","22","63742","0.0-21.0","47817a4f-79b4-4ca3-84bf-af5e79014ae5","","500","500","fixation","","<div class = centerbox><div class = fixation>+</div></div>","none","500","practice","","","","","","","","",""
"485","66","poldrack-categorize","23","66248","0.0-22.0","47817a4f-79b4-4ca3-84bf-af5e79014ae5","","1500","250","stim","","<div class = centerbox><div class = stroop-stim style = ""color:blue"">BLUE</div></div>","66,71,82","1500","practice","true","66","500","congruent","blue","blue","","",""
"-1","-1","poldrack-single-stim","24","67006","0.0-23.0","47817a4f-79b4-4ca3-84bf-af5e79014ae5","","500","500","fixation","","<div class = centerbox><div class = fixation>+</div></div>","none","500","practice","","","","","","","","",""
"435","71","poldrack-categorize","25","69520","0.0-24.0","47817a4f-79b4-4ca3-84bf-af5e79014ae5","","1500","250","stim","","<div class = centerbox><div class = stroop-stim style = ""color:green"">RED</div></div>","66,71,82","1500","practice","true","71","500","incongruent","green","red","","",""
"-1","-1","poldrack-single-stim","26","70280","0.0-25.0","47817a4f-79b4-4ca3-84bf-af5e79014ae5","","500","500","fixation","","<div class = centerbox><div class = fixation>+</div></div>","none","500","practice","","","","","","","","",""
"525","71","poldrack-categorize","27","72787","0.0-26.0","47817a4f-79b4-4ca3-84bf-af5e79014ae5","","1500","250","stim","","<div class = centerbox><div class = stroop-stim style = ""color:green"">GREEN</div></div>","66,71,82","1500","practice","true","71","500","congruent","green","green","","",""
"-1","-1","poldrack-single-stim","28","73548","0.0-27.0","47817a4f-79b4-4ca3-84bf-af5e79014ae5","","500","500","fixation","","<div class = centerbox><div class = fixation>+</div></div>","none","500","practice","","","","","","","","",""
"564","66","poldrack-categorize","29","76058","0.0-28.0","47817a4f-79b4-4ca3-84bf-af5e79014ae5","","1500","250","stim","","<div class = centerbox><div class = stroop-stim style = ""color:blue"">RED</div></div>","66,71,82","1500","practice","true","66","500","incongruent","blue","red","","",""
"-1","-1","poldrack-single-stim","30","76816","0.0-29.0","47817a4f-79b4-4ca3-84bf-af5e79014ae5","","500","500","fixation","","<div class = centerbox><div class = fixation>+</div></div>","none","500","practice","","","","","","","","",""
"627","71","poldrack-categorize","31","79329","0.0-30.0","47817a4f-79b4-4ca3-84bf-af5e79014ae5","","1500","250","stim","","<div class = centerbox><div class = stroop-stim style = ""color:green"">GREEN</div></div>","66,71,82","1500","practice","true","71","500","congruent","green","green","","",""
"-1","-1","poldrack-single-stim","32","80090","0.0-31.0","47817a4f-79b4-4ca3-84bf-af5e79014ae5","","500","500","fixation","","<div class = centerbox><div class = fixation>+</div></div>","none","500","practice","","","","","","","","",""
"416","66","poldrack-categorize","33","82597","0.0-32.0","47817a4f-79b4-4ca3-84bf-af5e79014ae5","","1500","250","stim","","<div class = centerbox><div class = stroop-stim style = ""color:blue"">BLUE</div></div>","66,71,82","1500","practice","true","66","500","congruent","blue","blue","","",""
"-1","-1","poldrack-single-stim","34","83358","0.0-33.0","47817a4f-79b4-4ca3-84bf-af5e79014ae5","","500","500","fixation","","<div class = centerbox><div class = fixation>+</div></div>","none","500","practice","","","","","","","","",""
"452","66","poldrack-categorize","35","85868","0.0-34.0","47817a4f-79b4-4ca3-84bf-af5e79014ae5","","1500","250","stim","","<div class = centerbox><div class = stroop-stim style = ""color:blue"">BLUE</div></div>","66,71,82","1500","practice","true","66","500","congruent","blue","blue","","",""
"-1","-1","poldrack-single-stim","36","86626","0.0-35.0","47817a4f-79b4-4ca3-84bf-af5e79014ae5","","500","500","fixation","","<div class = centerbox><div class = fixation>+</div></div>","none","500","practice","","","","","","","","",""
"514","66","poldrack-categorize","37","89139","0.0-36.0","47817a4f-79b4-4ca3-84bf-af5e79014ae5","","1500","250","stim","","<div class = centerbox><div class = stroop-stim style = ""color:green"">BLUE</div></div>","66,71,82","1500","practice","false","71","500","incongruent","green","blue","","",""
"-1","-1","poldrack-single-stim","38","89900","0.0-37.0","47817a4f-79b4-4ca3-84bf-af5e79014ae5","","500","500","fixation","","<div class = centerbox><div class = fixation>+</div></div>","none","500","practice","","","","","","","","",""
"530","71","poldrack-categorize","39","92407","0.0-38.0","47817a4f-79b4-4ca3-84bf-af5e79014ae5","","1500","250","stim","","<div class = centerbox><div class = stroop-stim style = ""color:green"">GREEN</div></div>","66,71,82","1500","practice","true","71","500","congruent","green","green","","",""
"-1","-1","poldrack-single-stim","40","93168","0.0-39.0","47817a4f-79b4-4ca3-84bf-af5e79014ae5","","500","500","fixation","","<div class = centerbox><div class = fixation>+</div></div>","none","500","practice","","","","","","","","",""
"622","82","poldrack-categorize","41","95679","0.0-40.0","47817a4f-79b4-4ca3-84bf-af5e79014ae5","","1500","250","stim","","<div class = centerbox><div class = stroop-stim style = ""color:red"">RED</div></div>","66,71,82","1500","practice","true","82","500","congruent","red","red","","",""
"-1","-1","poldrack-single-stim","42","96436","0.0-41.0","47817a4f-79b4-4ca3-84bf-af5e79014ae5","","500","500","fixation","","<div class = centerbox><div class = fixation>+</div></div>","none","500","practice","","","","","","","","",""
"514","71","poldrack-categorize","43","98949","0.0-42.0","47817a4f-79b4-4ca3-84bf-af5e79014ae5","","1500","250","stim","","<div class = centerbox><div class = stroop-stim style = ""color:green"">GREEN</div></div>","66,71,82","1500","practice","true","71","500","congruent","green","green","","",""
"-1","-1","poldrack-single-stim","44","99709","0.0-43.0","47817a4f-79b4-4ca3-84bf-af5e79014ae5","","500","500","fixation","","<div class = centerbox><div class = fixation>+</div></div>","none","500","practice","","","","","","","","",""
"606","82","poldrack-categorize","45","102223","0.0-44.0","47817a4f-79b4-4ca3-84bf-af5e79014ae5","","1500","250","stim","","<div class = centerbox><div class = stroop-stim style = ""color:red"">GREEN</div></div>","66,71,82","1500","practice","true","82","500","incongruent","red","green","","",""
"-1","-1","poldrack-single-stim","46","102983","0.0-45.0","47817a4f-79b4-4ca3-84bf-af5e79014ae5","","500","500","fixation","","<div class = centerbox><div class = fixation>+</div></div>","none","500","practice","","","","","","","","",""
"593","82","poldrack-categorize","47","105497","0.0-46.0","47817a4f-79b4-4ca3-84bf-af5e79014ae5","","1500","250","stim","","<div class = centerbox><div class = stroop-stim style = ""color:red"">GREEN</div></div>","66,71,82","1500","practice","true","82","500","incongruent","red","green","","",""
"-1","-1","poldrack-single-stim","48","106257","0.0-47.0","47817a4f-79b4-4ca3-84bf-af5e79014ae5","","500","500","fixation","","<div class = centerbox><div class = fixation>+</div></div>","none","500","practice","","","","","","","","",""
"582","71","poldrack-categorize","49","108770","0.0-48.0","47817a4f-79b4-4ca3-84bf-af5e79014ae5","","1500","250","stim","","<div class = centerbox><div class = stroop-stim style = ""color:green"">RED</div></div>","66,71,82","1500","practice","true","71","500","incongruent","green","red","","",""
"-1","-1","poldrack-single-stim","50","109531","0.0-49.0","47817a4f-79b4-4ca3-84bf-af5e79014ae5","","500","500","fixation","","<div class = centerbox><div class = fixation>+</div></div>","none","500","practice","","","","","","","","",""
"492","66","poldrack-categorize","51","112044","0.0-50.0","47817a4f-79b4-4ca3-84bf-af5e79014ae5","","1500","250","stim","","<div class = centerbox><div class = stroop-stim style = ""color:blue"">GREEN</div></div>","66,71,82","1500","practice","true","66","500","incongruent","blue","green","","",""
"2504","13","poldrack-text","52","114803","0.0-52.0","47817a4f-79b4-4ca3-84bf-af5e79014ae5","<div class = centerbox><p class = center-block-text>We will now start the test. Respond exactly like you did during practice.</p><p class = center-block-text>Press <strong>enter</strong> to begin the test.</p></div>","2504","1000","test_intro","","","","","","","","","","","","","",""
"-1","-1","poldrack-single-stim","53","116311","0.0-53.0","47817a4f-79b4-4ca3-84bf-af5e79014ae5","","500","500","fixation","","<div class = centerbox><div class = fixation>+</div></div>","none","500","test","","","","","","","","",""
"556","71","poldrack-categorize","54","118817","0.0-54.0","47817a4f-79b4-4ca3-84bf-af5e79014ae5","","1500","250","stim","","<div class = centerbox><div class = stroop-stim style = ""color:green"">GREEN</div></div>","66,71,82","1500","test","true","71","500","congruent","green","green","","",""
"-1","-1","poldrack-single-stim","55","119579","0.0-55.0","47817a4f-79b4-4ca3-84bf-af5e79014ae5","","500","500","fixation","","<div class = centerbox><div class = fixation>+</div></div>","none","500","test","","","","","","","","",""
"774","71","poldrack-categorize","56","122086","0.0-56.0","47817a4f-79b4-4ca3-84bf-af5e79014ae5","","1500","250","stim","","<div class = centerbox><div class = stroop-stim style = ""color:green"">BLUE</div></div>","66,71,82","1500","test","true","71","500","incongruent","green","blue","","",""
"-1","-1","poldrack-single-stim","57","122841","0.0-57.0","47817a4f-79b4-4ca3-84bf-af5e79014ae5","","500","500","fixation","","<div class = centerbox><div class = fixation>+</div></div>","none","500","test","","","","","","","","",""
"682","82","poldrack-categorize","58","125354","0.0-58.0","47817a4f-79b4-4ca3-84bf-af5e79014ae5","","1500","250","stim","","<div class = centerbox><div class = stroop-stim style = ""color:red"">RED</div></div>","66,71,82","1500","test","true","82","500","congruent","red","red","","",""
"-1","-1","poldrack-single-stim","59","126115","0.0-59.0","47817a4f-79b4-4ca3-84bf-af5e79014ae5","","500","500","fixation","","<div class = centerbox><div class = fixation>+</div></div>","none","500","test","","","","","","","","",""
"583","71","poldrack-categorize","60","128628","0.0-60.0","47817a4f-79b4-4ca3-84bf-af5e79014ae5","","1500","250","stim","","<div class = centerbox><div class = stroop-stim style = ""color:green"">GREEN</div></div>","66,71,82","1500","test","true","71","500","congruent","green","green","","",""
"-1","-1","poldrack-single-stim","61","129389","0.0-61.0","47817a4f-79b4-4ca3-84bf-af5e79014ae5","","500","500","fixation","","<div class = centerbox><div class = fixation>+</div></div>","none","500","test","","","","","","","","",""
"660","66","poldrack-categorize","62","131902","0.0-62.0","47817a4f-79b4-4ca3-84bf-af5e79014ae5","","1500","250","stim","","<div class = centerbox><div class = stroop-stim style = ""color:blue"">BLUE</div></div>","66,71,82","1500","test","true","66","500","congruent","blue","blue","","",""
"-1","-1","poldrack-single-stim","63","132662","0.0-63.0","47817a4f-79b4-4ca3-84bf-af5e79014ae5","","500","500","fixation","","<div class = centerbox><div class = fixation>+</div></div>","none","500","test","","","","","","","","",""
"637","71","poldrack-categorize","64","135175","0.0-64.0","47817a4f-79b4-4ca3-84bf-af5e79014ae5","","1500","250","stim","","<div class = centerbox><div class = stroop-stim style = ""color:green"">BLUE</div></div>","66,71,82","1500","test","true","71","500","incongruent","green","blue","","",""
"-1","-1","poldrack-single-stim","65","135936","0.0-65.0","47817a4f-79b4-4ca3-84bf-af5e79014ae5","","500","500","fixation","","<div class = centerbox><div class = fixation>+</div></div>","none","500","test","","","","","","","","",""
"1043","82","poldrack-categorize","66","138449","0.0-66.0","47817a4f-79b4-4ca3-84bf-af5e79014ae5","","1500","250","stim","","<div class = centerbox><div class = stroop-stim style = ""color:red"">GREEN</div></div>","66,71,82","1500","test","true","82","500","incongruent","red","green","","",""
"-1","-1","poldrack-single-stim","67","139210","0.0-67.0","47817a4f-79b4-4ca3-84bf-af5e79014ae5","","500","500","fixation","","<div class = centerbox><div class = fixation>+</div></div>","none","500","test","","","","","","","","",""
"603","82","poldrack-categorize","68","141718","0.0-68.0","47817a4f-79b4-4ca3-84bf-af5e79014ae5","","1500","250","stim","","<div class = centerbox><div class = stroop-stim style = ""color:red"">RED</div></div>","66,71,82","1500","test","true","82","500","congruent","red","red","","",""
"-1","-1","poldrack-single-stim","69","142478","0.0-69.0","47817a4f-79b4-4ca3-84bf-af5e79014ae5","","500","500","fixation","","<div class = centerbox><div class = fixation>+</div></div>","none","500","test","","","","","","","","",""
"902","71","poldrack-categorize","70","144991","0.0-70.0","47817a4f-79b4-4ca3-84bf-af5e79014ae5","","1500","250","stim","","<div class = centerbox><div class = stroop-stim style = ""color:green"">RED</div></div>","66,71,82","1500","test","true","71","500","incongruent","green","red","","",""
"-1","-1","poldrack-single-stim","71","145752","0.0-71.0","47817a4f-79b4-4ca3-84bf-af5e79014ae5","","500","500","fixation","","<div class = centerbox><div class = fixation>+</div></div>","none","500","test","","","","","","","","",""
"756","71","poldrack-categorize","72","148265","0.0-72.0","47817a4f-79b4-4ca3-84bf-af5e79014ae5","","1500","250","stim","","<div class = centerbox><div class = stroop-stim style = ""color:green"">GREEN</div></div>","66,71,82","1500","test","true","71","500","congruent","green","green","","",""
"-1","-1","poldrack-single-stim","73","149025","0.0-73.0","47817a4f-79b4-4ca3-84bf-af5e79014ae5","","500","500","fixation","","<div class = centerbox><div class = fixation>+</div></div>","none","500","test","","","","","","","","",""
"802","82","poldrack-categorize","74","151539","0.0-74.0","47817a4f-79b4-4ca3-84bf-af5e79014ae5","","1500","250","stim","","<div class = centerbox><div class = stroop-stim style = ""color:green"">RED</div></div>","66,71,82","1500","test","false","71","500","incongruent","green","red","","",""
"-1","-1","poldrack-single-stim","75","152299","0.0-75.0","47817a4f-79b4-4ca3-84bf-af5e79014ae5","","500","500","fixation","","<div class = centerbox><div class = fixation>+</div></div>","none","500","test","","","","","","","","",""
"643","66","poldrack-categorize","76","154812","0.0-76.0","47817a4f-79b4-4ca3-84bf-af5e79014ae5","","1500","250","stim","","<div class = centerbox><div class = stroop-stim style = ""color:blue"">BLUE</div></div>","66,71,82","1500","test","true","66","500","congruent","blue","blue","","",""
"-1","-1","poldrack-single-stim","77","155573","0.0-77.0","47817a4f-79b4-4ca3-84bf-af5e79014ae5","","500","500","fixation","","<div class = centerbox><div class = fixation>+</div></div>","none","500","test","","","","","","","","",""
"666","66","poldrack-categorize","78","158086","0.0-78.0","47817a4f-79b4-4ca3-84bf-af5e79014ae5","","1500","250","stim","","<div class = centerbox><div class = stroop-stim style = ""color:blue"">BLUE</div></div>","66,71,82","1500","test","true","66","500","congruent","blue","blue","","",""
"-1","-1","poldrack-single-stim","79","158847","0.0-79.0","47817a4f-79b4-4ca3-84bf-af5e79014ae5","","500","500","fixation","","<div class = centerbox><div class = fixation>+</div></div>","none","500","test","","","","","","","","",""
"621","82","poldrack-categorize","80","161361","0.0-80.0","47817a4f-79b4-4ca3-84bf-af5e79014ae5","","1500","250","stim","","<div class = centerbox><div class = stroop-stim style = ""color:red"">RED</div></div>","66,71,82","1500","test","true","82","500","congruent","red","red","","",""
"-1","-1","poldrack-single-stim","81","162121","0.0-81.0","47817a4f-79b4-4ca3-84bf-af5e79014ae5","","500","500","fixation","","<div class = centerbox><div class = fixation>+</div></div>","none","500","test","","","","","","","","",""
"744","66","poldrack-categorize","82","164634","0.0-82.0","47817a4f-79b4-4ca3-84bf-af5e79014ae5","","1500","250","stim","","<div class = centerbox><div class = stroop-stim style = ""color:blue"">BLUE</div></div>","66,71,82","1500","test","true","66","500","congruent","blue","blue","","",""
"-1","-1","poldrack-single-stim","83","165395","0.0-83.0","47817a4f-79b4-4ca3-84bf-af5e79014ae5","","500","500","fixation","","<div class = centerbox><div class = fixation>+</div></div>","none","500","test","","","","","","","","",""
"655","82","poldrack-categorize","84","167908","0.0-84.0","47817a4f-79b4-4ca3-84bf-af5e79014ae5","","1500","250","stim","","<div class = centerbox><div class = stroop-stim style = ""color:red"">RED</div></div>","66,71,82","1500","test","true","82","500","congruent","red","red","","",""
"-1","-1","poldrack-single-stim","85","168669","0.0-85.0","47817a4f-79b4-4ca3-84bf-af5e79014ae5","","500","500","fixation","","<div class = centerbox><div class = fixation>+</div></div>","none","500","test","","","","","","","","",""
"733","66","poldrack-categorize","86","171182","0.0-86.0","47817a4f-79b4-4ca3-84bf-af5e79014ae5","","1500","250","stim","","<div class = centerbox><div class = stroop-stim style = ""color:blue"">GREEN</div></div>","66,71,82","1500","test","true","66","500","incongruent","blue","green","","",""
"-1","-1","poldrack-single-stim","87","171939","0.0-87.0","47817a4f-79b4-4ca3-84bf-af5e79014ae5","","500","500","fixation","","<div class = centerbox><div class = fixation>+</div></div>","none","500","test","","","","","","","","",""
"649","82","poldrack-categorize","88","174450","0.0-88.0","47817a4f-79b4-4ca3-84bf-af5e79014ae5","","1500","250","stim","","<div class = centerbox><div class = stroop-stim style = ""color:red"">RED</div></div>","66,71,82","1500","test","true","82","500","congruent","red","red","","",""
"-1","-1","poldrack-single-stim","89","175210","0.0-89.0","47817a4f-79b4-4ca3-84bf-af5e79014ae5","","500","500","fixation","","<div class = centerbox><div class = fixation>+</div></div>","none","500","test","","","","","","","","",""
"976","82","poldrack-categorize","90","177718","0.0-90.0","47817a4f-79b4-4ca3-84bf-af5e79014ae5","","1500","250","stim","","<div class = centerbox><div class = stroop-stim style = ""color:red"">GREEN</div></div>","66,71,82","1500","test","true","82","500","incongruent","red","green","","",""
"-1","-1","poldrack-single-stim","91","178478","0.0-91.0","47817a4f-79b4-4ca3-84bf-af5e79014ae5","","500","500","fixation","","<div class = centerbox><div class = fixation>+</div></div>","none","500","test","","","","","","","","",""
"688","66","poldrack-categorize","92","180991","0.0-92.0","47817a4f-79b4-4ca3-84bf-af5e79014ae5","","1500","250","stim","","<div class = centerbox><div class = stroop-stim style = ""color:blue"">BLUE</div></div>","66,71,82","1500","test","true","66","500","congruent","blue","blue","","",""
"-1","-1","poldrack-single-stim","93","181752","0.0-93.0","47817a4f-79b4-4ca3-84bf-af5e79014ae5","","500","500","fixation","","<div class = centerbox><div class = fixation>+</div></div>","none","500","test","","","","","","","","",""
"778","66","poldrack-categorize","94","184265","0.0-94.0","47817a4f-79b4-4ca3-84bf-af5e79014ae5","","1500","250","stim","","<div class = centerbox><div class = stroop-stim style = ""color:blue"">GREEN</div></div>","66,71,82","1500","test","true","66","500","incongruent","blue","green","","",""
"-1","-1","poldrack-single-stim","95","185020","0.0-95.0","47817a4f-79b4-4ca3-84bf-af5e79014ae5","","500","500","fixation","","<div class = centerbox><div class = fixation>+</div></div>","none","500","test","","","","","","","","",""
"570","66","poldrack-categorize","96","187533","0.0-96.0","47817a4f-79b4-4ca3-84bf-af5e79014ae5","","1500","250","stim","","<div class = centerbox><div class = stroop-stim style = ""color:blue"">BLUE</div></div>","66,71,82","1500","test","true","66","500","congruent","blue","blue","","",""
"-1","-1","poldrack-single-stim","97","188294","0.0-97.0","47817a4f-79b4-4ca3-84bf-af5e79014ae5","","500","500","fixation","","<div class = centerbox><div class = fixation>+</div></div>","none","500","test","","","","","","","","",""
"784","71","poldrack-categorize","98","190807","0.0-98.0","47817a4f-79b4-4ca3-84bf-af5e79014ae5","","1500","250","stim","","<div class = centerbox><div class = stroop-stim style = ""color:green"">GREEN</div></div>","66,71,82","1500","test","true","71","500","congruent","green","green","","",""
"-1","-1","poldrack-single-stim","99","191568","0.0-99.0","47817a4f-79b4-4ca3-84bf-af5e79014ae5","","500","500","fixation","","<div class = centerbox><div class = fixation>+</div></div>","none","500","test","","","","","","","","",""
"650","66","poldrack-categorize","100","194081","0.0-100.0","47817a4f-79b4-4ca3-84bf-af5e79014ae5","","1500","250","stim","","<div class = centerbox><div class = stroop-stim style = ""color:blue"">BLUE</div></div>","66,71,82","1500","test","true","66","500","congruent","blue","blue","","",""
"-1","-1","poldrack-single-stim","101","194842","0.0-101.0","47817a4f-79b4-4ca3-84bf-af5e79014ae5","","500","500","fixation","","<div class = centerbox><div class = fixation>+</div></div>","none","500","test","","","","","","","","",""
"515","71","poldrack-categorize","102","197355","0.0-102.0","47817a4f-79b4-4ca3-84bf-af5e79014ae5","","1500","250","stim","","<div class = centerbox><div class = stroop-stim style = ""color:green"">GREEN</div></div>","66,71,82","1500","test","true","71","500","congruent","green","green","","",""
"-1","-1","poldrack-single-stim","103","198115","0.0-103.0","47817a4f-79b4-4ca3-84bf-af5e79014ae5","","500","500","fixation","","<div class = centerbox><div class = fixation>+</div></div>","none","500","test","","","","","","","","",""
"750","66","poldrack-categorize","104","200628","0.0-104.0","47817a4f-79b4-4ca3-84bf-af5e79014ae5","","1500","250","stim","","<div class = centerbox><div class = stroop-stim style = ""color:blue"">GREEN</div></div>","66,71,82","1500","test","true","66","500","incongruent","blue","green","","",""
"-1","-1","poldrack-single-stim","105","201389","0.0-105.0","47817a4f-79b4-4ca3-84bf-af5e79014ae5","","500","500","fixation","","<div class = centerbox><div class = fixation>+</div></div>","none","500","test","","","","","","","","",""
"661","66","poldrack-categorize","106","203902","0.0-106.0","47817a4f-79b4-4ca3-84bf-af5e79014ae5","","1500","250","stim","","<div class = centerbox><div class = stroop-stim style = ""color:blue"">RED</div></div>","66,71,82","1500","test","true","66","500","incongruent","blue","red","","",""
"-1","-1","poldrack-single-stim","107","204657","0.0-107.0","47817a4f-79b4-4ca3-84bf-af5e79014ae5","","500","500","fixation","","<div class = centerbox><div class = fixation>+</div></div>","none","500","test","","","","","","","","",""
"745","82","poldrack-categorize","108","207170","0.0-108.0","47817a4f-79b4-4ca3-84bf-af5e79014ae5","","1500","250","stim","","<div class = centerbox><div class = stroop-stim style = ""color:green"">BLUE</div></div>","66,71,82","1500","test","false","71","500","incongruent","green","blue","","",""
"-1","-1","poldrack-single-stim","109","207931","0.0-109.0","47817a4f-79b4-4ca3-84bf-af5e79014ae5","","500","500","fixation","","<div class = centerbox><div class = fixation>+</div></div>","none","500","test","","","","","","","","",""
"857","71","poldrack-categorize","110","210444","0.0-110.0","47817a4f-79b4-4ca3-84bf-af5e79014ae5","","1500","250","stim","","<div class = centerbox><div class = stroop-stim style = ""color:green"">RED</div></div>","66,71,82","1500","test","true","71","500","incongruent","green","red","","",""
"-1","-1","poldrack-single-stim","111","211205","0.0-111.0","47817a4f-79b4-4ca3-84bf-af5e79014ae5","","500","500","fixation","","<div class = centerbox><div class = fixation>+</div></div>","none","500","test","","","","","","","","",""
"564","71","poldrack-categorize","112","213718","0.0-112.0","47817a4f-79b4-4ca3-84bf-af5e79014ae5","","1500","250","stim","","<div class = centerbox><div class = stroop-stim style = ""color:green"">GREEN</div></div>","66,71,82","1500","test","true","71","500","congruent","green","green","","",""
"-1","-1","poldrack-single-stim","113","214478","0.0-113.0","47817a4f-79b4-4ca3-84bf-af5e79014ae5","","500","500","fixation","","<div class = centerbox><div class = fixation>+</div></div>","none","500","test","","","","","","","","",""
"610","66","poldrack-categorize","114","216992","0.0-114.0","47817a4f-79b4-4ca3-84bf-af5e79014ae5","","1500","250","stim","","<div class = centerbox><div class = stroop-stim style = ""color:blue"">BLUE</div></div>","66,71,82","1500","test","true","66","500","congruent","blue","blue","","",""
"-1","-1","poldrack-single-stim","115","217746","0.0-115.0","47817a4f-79b4-4ca3-84bf-af5e79014ae5","","500","500","fixation","","<div class = centerbox><div class = fixation>+</div></div>","none","500","test","","","","","","","","",""
"1347","82","poldrack-categorize","116","220256","0.0-116.0","47817a4f-79b4-4ca3-84bf-af5e79014ae5","","1500","250","stim","","<div class = centerbox><div class = stroop-stim style = ""color:red"">BLUE</div></div>","66,71,82","1500","test","true","82","500","incongruent","red","blue","","",""
"-1","-1","poldrack-single-stim","117","221014","0.0-117.0","47817a4f-79b4-4ca3-84bf-af5e79014ae5","","500","500","fixation","","<div class = centerbox><div class = fixation>+</div></div>","none","500","test","","","","","","","","",""
"689","71","poldrack-categorize","118","223528","0.0-118.0","47817a4f-79b4-4ca3-84bf-af5e79014ae5","","1500","250","stim","","<div class = centerbox><div class = stroop-stim style = ""color:green"">GREEN</div></div>","66,71,82","1500","test","true","71","500","congruent","green","green","","",""
"-1","-1","poldrack-single-stim","119","224288","0.0-119.0","47817a4f-79b4-4ca3-84bf-af5e79014ae5","","500","500","fixation","","<div class = centerbox><div class = fixation>+</div></div>","none","500","test","","","","","","","","",""
"464","71","poldrack-categorize","120","226801","0.0-120.0","47817a4f-79b4-4ca3-84bf-af5e79014ae5","","1500","250","stim","","<div class = centerbox><div class = stroop-stim style = ""color:green"">GREEN</div></div>","66,71,82","1500","test","true","71","500","congruent","green","green","","",""
"-1","-1","poldrack-single-stim","121","227558","0.0-121.0","47817a4f-79b4-4ca3-84bf-af5e79014ae5","","500","500","fixation","","<div class = centerbox><div class = fixation>+</div></div>","none","500","test","","","","","","","","",""
"470","71","poldrack-categorize","122","230068","0.0-122.0","47817a4f-79b4-4ca3-84bf-af5e79014ae5","","1500","250","stim","","<div class = centerbox><div class = stroop-stim style = ""color:green"">GREEN</div></div>","66,71,82","1500","test","true","71","500","congruent","green","green","","",""
"-1","-1","poldrack-single-stim","123","230824","0.0-123.0","47817a4f-79b4-4ca3-84bf-af5e79014ae5","","500","500","fixation","","<div class = centerbox><div class = fixation>+</div></div>","none","500","test","","","","","","","","",""
"656","66","poldrack-categorize","124","233337","0.0-124.0","47817a4f-79b4-4ca3-84bf-af5e79014ae5","","1500","250","stim","","<div class = centerbox><div class = stroop-stim style = ""color:blue"">BLUE</div></div>","66,71,82","1500","test","true","66","500","congruent","blue","blue","","",""
"-1","-1","poldrack-single-stim","125","234098","0.0-125.0","47817a4f-79b4-4ca3-84bf-af5e79014ae5","","500","500","fixation","","<div class = centerbox><div class = fixation>+</div></div>","none","500","test","","","","","","","","",""
"656","71","poldrack-categorize","126","236611","0.0-126.0","47817a4f-79b4-4ca3-84bf-af5e79014ae5","","1500","250","stim","","<div class = centerbox><div class = stroop-stim style = ""color:green"">GREEN</div></div>","66,71,82","1500","test","true","71","500","congruent","green","green","","",""
"-1","-1","poldrack-single-stim","127","237372","0.0-127.0","47817a4f-79b4-4ca3-84bf-af5e79014ae5","","500","500","fixation","","<div class = centerbox><div class = fixation>+</div></div>","none","500","test","","","","","","","","",""
"813","66","poldrack-categorize","128","239885","0.0-128.0","47817a4f-79b4-4ca3-84bf-af5e79014ae5","","1500","250","stim","","<div class = centerbox><div class = stroop-stim style = ""color:blue"">RED</div></div>","66,71,82","1500","test","true","66","500","incongruent","blue","red","","",""
"-1","-1","poldrack-single-stim","129","240646","0.0-129.0","47817a4f-79b4-4ca3-84bf-af5e79014ae5","","500","500","fixation","","<div class = centerbox><div class = fixation>+</div></div>","none","500","test","","","","","","","","",""
"644","66","poldrack-categorize","130","243159","0.0-130.0","47817a4f-79b4-4ca3-84bf-af5e79014ae5","","1500","250","stim","","<div class = centerbox><div class = stroop-stim style = ""color:red"">RED</div></div>","66,71,82","1500","test","false","82","500","congruent","red","red","","",""
"-1","-1","poldrack-single-stim","131","243920","0.0-131.0","47817a4f-79b4-4ca3-84bf-af5e79014ae5","","500","500","fixation","","<div class = centerbox><div class = fixation>+</div></div>","none","500","test","","","","","","","","",""
"892","66","poldrack-categorize","132","246433","0.0-132.0","47817a4f-79b4-4ca3-84bf-af5e79014ae5","","1500","250","stim","","<div class = centerbox><div class = stroop-stim style = ""color:blue"">GREEN</div></div>","66,71,82","1500","test","true","66","500","incongruent","blue","green","","",""
"-1","-1","poldrack-single-stim","133","247193","0.0-133.0","47817a4f-79b4-4ca3-84bf-af5e79014ae5","","500","500","fixation","","<div class = centerbox><div class = fixation>+</div></div>","none","500","test","","","","","","","","",""
"746","82","poldrack-categorize","134","249706","0.0-134.0","47817a4f-79b4-4ca3-84bf-af5e79014ae5","","1500","250","stim","","<div class = centerbox><div class = stroop-stim style = ""color:red"">BLUE</div></div>","66,71,82","1500","test","true","82","500","incongruent","red","blue","","",""
"-1","-1","poldrack-single-stim","135","250467","0.0-135.0","47817a4f-79b4-4ca3-84bf-af5e79014ae5","","500","500","fixation","","<div class = centerbox><div class = fixation>+</div></div>","none","500","test","","","","","","","","",""
"476","82","poldrack-categorize","136","252980","0.0-136.0","47817a4f-79b4-4ca3-84bf-af5e79014ae5","","1500","250","stim","","<div class = centerbox><div class = stroop-stim style = ""color:red"">BLUE</div></div>","66,71,82","1500","test","true","82","500","incongruent","red","blue","","",""
"-1","-1","poldrack-single-stim","137","253741","0.0-137.0","47817a4f-79b4-4ca3-84bf-af5e79014ae5","","500","500","fixation","","<div class = centerbox><div class = fixation>+</div></div>","none","500","test","","","","","","","","",""
"633","71","poldrack-categorize","138","256254","0.0-138.0","47817a4f-79b4-4ca3-84bf-af5e79014ae5","","1500","250","stim","","<div class = centerbox><div class = stroop-stim style = ""color:blue"">RED</div></div>","66,71,82","1500","test","false","66","500","incongruent","blue","red","","",""
"-1","-1","poldrack-single-stim","139","257015","0.0-139.0","47817a4f-79b4-4ca3-84bf-af5e79014ae5","","500","500","fixation","","<div class = centerbox><div class = fixation>+</div></div>","none","500","test","","","","","","","","",""
"1241","82","poldrack-categorize","140","259528","0.0-140.0","47817a4f-79b4-4ca3-84bf-af5e79014ae5","","1500","250","stim","","<div class = centerbox><div class = stroop-stim style = ""color:red"">RED</div></div>","66,71,82","1500","test","true","82","500","congruent","red","red","","",""
"-1","-1","poldrack-single-stim","141","260288","0.0-141.0","47817a4f-79b4-4ca3-84bf-af5e79014ae5","","500","500","fixation","","<div class = centerbox><div class = fixation>+</div></div>","none","500","test","","","","","","","","",""
"712","66","poldrack-categorize","142","262801","0.0-142.0","47817a4f-79b4-4ca3-84bf-af5e79014ae5","","1500","250","stim","","<div class = centerbox><div class = stroop-stim style = ""color:blue"">BLUE</div></div>","66,71,82","1500","test","true","66","500","congruent","blue","blue","","",""
"-1","-1","poldrack-single-stim","143","263553","0.0-143.0","47817a4f-79b4-4ca3-84bf-af5e79014ae5","","500","500","fixation","","<div class = centerbox><div class = fixation>+</div></div>","none","500","test","","","","","","","","",""
"1005","82","poldrack-categorize","144","266064","0.0-144.0","47817a4f-79b4-4ca3-84bf-af5e79014ae5","","1500","250","stim","","<div class = centerbox><div class = stroop-stim style = ""color:red"">RED</div></div>","66,71,82","1500","test","true","82","500","congruent","red","red","","",""
"-1","-1","poldrack-single-stim","145","266824","0.0-145.0","47817a4f-79b4-4ca3-84bf-af5e79014ae5","","500","500","fixation","","<div class = centerbox><div class = fixation>+</div></div>","none","500","test","","","","","","","","",""
"555","82","poldrack-categorize","146","269338","0.0-146.0","47817a4f-79b4-4ca3-84bf-af5e79014ae5","","1500","250","stim","","<div class = centerbox><div class = stroop-stim style = ""color:red"">RED</div></div>","66,71,82","1500","test","true","82","500","congruent","red","red","","",""
"-1","-1","poldrack-single-stim","147","270098","0.0-147.0","47817a4f-79b4-4ca3-84bf-af5e79014ae5","","500","500","fixation","","<div class = centerbox><div class = fixation>+</div></div>","none","500","test","","","","","","","","",""
"545","82","poldrack-categorize","148","272611","0.0-148.0","47817a4f-79b4-4ca3-84bf-af5e79014ae5","","1500","250","stim","","<div class = centerbox><div class = stroop-stim style = ""color:red"">RED</div></div>","66,71,82","1500","test","true","82","500","congruent","red","red","","",""
"-1","-1","poldrack-single-stim","149","273372","0.0-149.0","47817a4f-79b4-4ca3-84bf-af5e79014ae5","","500","500","fixation","","<div class = centerbox><div class = fixation>+</div></div>","none","500","test","","","","","","","","",""
"600","82","poldrack-categorize","150","275885","0.0-150.0","47817a4f-79b4-4ca3-84bf-af5e79014ae5","","1500","250","stim","","<div class = centerbox><div class = stroop-stim style = ""color:red"">BLUE</div></div>","66,71,82","1500","test","true","82","500","incongruent","red","blue","","",""
"-1","-1","poldrack-single-stim","151","276640","0.0-151.0","47817a4f-79b4-4ca3-84bf-af5e79014ae5","","500","500","fixation","","<div class = centerbox><div class = fixation>+</div></div>","none","500","test","","","","","","","","",""
"808","71","poldrack-categorize","152","279153","0.0-152.0","47817a4f-79b4-4ca3-84bf-af5e79014ae5","","1500","250","stim","","<div class = centerbox><div class = stroop-stim style = ""color:green"">BLUE</div></div>","66,71,82","1500","test","true","71","500","incongruent","green","blue","","",""
"-1","-1","poldrack-single-stim","153","279914","0.0-153.0","47817a4f-79b4-4ca3-84bf-af5e79014ae5","","500","500","fixation","","<div class = centerbox><div class = fixation>+</div></div>","none","500","test","","","","","","","","",""
"506","66","poldrack-categorize","154","282427","0.0-154.0","47817a4f-79b4-4ca3-84bf-af5e79014ae5","","1500","250","stim","","<div class = centerbox><div class = stroop-stim style = ""color:blue"">BLUE</div></div>","66,71,82","1500","test","true","66","500","congruent","blue","blue","","",""
"-1","-1","poldrack-single-stim","155","283188","0.0-155.0","47817a4f-79b4-4ca3-84bf-af5e79014ae5","","500","500","fixation","","<div class = centerbox><div class = fixation>+</div></div>","none","500","test","","","","","","","","",""
"673","71","poldrack-categorize","156","285701","0.0-156.0","47817a4f-79b4-4ca3-84bf-af5e79014ae5","","1500","250","stim","","<div class = centerbox><div class = stroop-stim style = ""color:green"">GREEN</div></div>","66,71,82","1500","test","true","71","500","congruent","green","green","","",""
"-1","-1","poldrack-single-stim","157","286456","0.0-157.0","47817a4f-79b4-4ca3-84bf-af5e79014ae5","","500","500","fixation","","<div class = centerbox><div class = fixation>+</div></div>","none","500","test","","","","","","","","",""
"870","66","poldrack-categorize","158","288970","0.0-158.0","47817a4f-79b4-4ca3-84bf-af5e79014ae5","","1500","250","stim","","<div class = centerbox><div class = stroop-stim style = ""color:blue"">GREEN</div></div>","66,71,82","1500","test","true","66","500","incongruent","blue","green","","",""
"-1","-1","poldrack-single-stim","159","289729","0.0-159.0","47817a4f-79b4-4ca3-84bf-af5e79014ae5","","500","500","fixation","","<div class = centerbox><div class = fixation>+</div></div>","none","500","test","","","","","","","","",""
"1400","66","poldrack-categorize","160","292237","0.0-160.0","47817a4f-79b4-4ca3-84bf-af5e79014ae5","","1500","250","stim","","<div class = centerbox><div class = stroop-stim style = ""color:blue"">RED</div></div>","66,71,82","1500","test","true","66","500","incongruent","blue","red","","",""
"-1","-1","poldrack-single-stim","161","292997","0.0-161.0","47817a4f-79b4-4ca3-84bf-af5e79014ae5","","500","500","fixation","","<div class = centerbox><div class = fixation>+</div></div>","none","500","test","","","","","","","","",""
"842","82","poldrack-categorize","162","295511","0.0-162.0","47817a4f-79b4-4ca3-84bf-af5e79014ae5","","1500","250","stim","","<div class = centerbox><div class = stroop-stim style = ""color:red"">RED</div></div>","66,71,82","1500","test","true","82","500","congruent","red","red","","",""
"-1","-1","poldrack-single-stim","163","296266","0.0-163.0","47817a4f-79b4-4ca3-84bf-af5e79014ae5","","500","500","fixation","","<div class = centerbox><div class = fixation>+</div></div>","none","500","test","","","","","","","","",""
"623","66","poldrack-categorize","164","298779","0.0-164.0","47817a4f-79b4-4ca3-84bf-af5e79014ae5","","1500","250","stim","","<div class = centerbox><div class = stroop-stim style = ""color:blue"">GREEN</div></div>","66,71,82","1500","test","true","66","500","incongruent","blue","green","","",""
"-1","-1","poldrack-single-stim","165","299539","0.0-165.0","47817a4f-79b4-4ca3-84bf-af5e79014ae5","","500","500","fixation","","<div class = centerbox><div class = fixation>+</div></div>","none","500","test","","","","","","","","",""
"612","66","poldrack-categorize","166","302053","0.0-166.0","47817a4f-79b4-4ca3-84bf-af5e79014ae5","","1500","250","stim","","<div class = centerbox><div class = stroop-stim style = ""color:blue"">GREEN</div></div>","66,71,82","1500","test","true","66","500","incongruent","blue","green","","",""
"-1","-1","poldrack-single-stim","167","302813","0.0-167.0","47817a4f-79b4-4ca3-84bf-af5e79014ae5","","500","500","fixation","","<div class = centerbox><div class = fixation>+</div></div>","none","500","test","","","","","","","","",""
"668","71","poldrack-categorize","168","305326","0.0-168.0","47817a4f-79b4-4ca3-84bf-af5e79014ae5","","1500","250","stim","","<div class = centerbox><div class = stroop-stim style = ""color:green"">BLUE</div></div>","66,71,82","1500","test","true","71","500","incongruent","green","blue","","",""
"-1","-1","poldrack-single-stim","169","306087","0.0-169.0","47817a4f-79b4-4ca3-84bf-af5e79014ae5","","500","500","fixation","","<div class = centerbox><div class = fixation>+</div></div>","none","500","test","","","","","","","","",""
"488","71","poldrack-categorize","170","308600","0.0-170.0","47817a4f-79b4-4ca3-84bf-af5e79014ae5","","1500","250","stim","","<div class = centerbox><div class = stroop-stim style = ""color:green"">RED</div></div>","66,71,82","1500","test","true","71","500","incongruent","green","red","","",""
"-1","-1","poldrack-single-stim","171","309361","0.0-171.0","47817a4f-79b4-4ca3-84bf-af5e79014ae5","","500","500","fixation","","<div class = centerbox><div class = fixation>+</div></div>","none","500","test","","","","","","","","",""
"1276","82","poldrack-categorize","172","311871","0.0-172.0","47817a4f-79b4-4ca3-84bf-af5e79014ae5","","1500","250","stim","","<div class = centerbox><div class = stroop-stim style = ""color:red"">GREEN</div></div>","66,71,82","1500","test","true","82","500","incongruent","red","green","","",""
"-1","-1","poldrack-single-stim","173","312629","0.0-173.0","47817a4f-79b4-4ca3-84bf-af5e79014ae5","","500","500","fixation","","<div class = centerbox><div class = fixation>+</div></div>","none","500","test","","","","","","","","",""
"729","71","poldrack-categorize","174","315144","0.0-174.0","47817a4f-79b4-4ca3-84bf-af5e79014ae5","","1500","250","stim","","<div class = centerbox><div class = stroop-stim style = ""color:green"">GREEN</div></div>","66,71,82","1500","test","true","71","500","congruent","green","green","","",""
"-1","-1","poldrack-single-stim","175","315903","0.0-175.0","47817a4f-79b4-4ca3-84bf-af5e79014ae5","","500","500","fixation","","<div class = centerbox><div class = fixation>+</div></div>","none","500","test","","","","","","","","",""
"663","66","poldrack-categorize","176","318416","0.0-176.0","47817a4f-79b4-4ca3-84bf-af5e79014ae5","","1500","250","stim","","<div class = centerbox><div class = stroop-stim style = ""color:blue"">BLUE</div></div>","66,71,82","1500","test","true","66","500","congruent","blue","blue","","",""
"-1","-1","poldrack-single-stim","177","319176","0.0-177.0","47817a4f-79b4-4ca3-84bf-af5e79014ae5","","500","500","fixation","","<div class = centerbox><div class = fixation>+</div></div>","none","500","test","","","","","","","","",""
"732","82","poldrack-categorize","178","321690","0.0-178.0","47817a4f-79b4-4ca3-84bf-af5e79014ae5","","1500","250","stim","","<div class = centerbox><div class = stroop-stim style = ""color:red"">GREEN</div></div>","66,71,82","1500","test","true","82","500","incongruent","red","green","","",""
"-1","-1","poldrack-single-stim","179","322450","0.0-179.0","47817a4f-79b4-4ca3-84bf-af5e79014ae5","","500","500","fixation","","<div class = centerbox><div class = fixation>+</div></div>","none","500","test","","","","","","","","",""
"550","71","poldrack-categorize","180","324963","0.0-180.0","47817a4f-79b4-4ca3-84bf-af5e79014ae5","","1500","250","stim","","<div class = centerbox><div class = stroop-stim style = ""color:green"">GREEN</div></div>","66,71,82","1500","test","true","71","500","congruent","green","green","","",""
"-1","-1","poldrack-single-stim","181","325724","0.0-181.0","47817a4f-79b4-4ca3-84bf-af5e79014ae5","","500","500","fixation","","<div class = centerbox><div class = fixation>+</div></div>","none","500","test","","","","","","","","",""
"471","71","poldrack-categorize","182","328237","0.0-182.0","47817a4f-79b4-4ca3-84bf-af5e79014ae5","","1500","250","stim","","<div class = centerbox><div class = stroop-stim style = ""color:green"">RED</div></div>","66,71,82","1500","test","true","71","500","incongruent","green","red","","",""
"-1","-1","poldrack-single-stim","183","328998","0.0-183.0","47817a4f-79b4-4ca3-84bf-af5e79014ae5","","500","500","fixation","","<div class = centerbox><div class = fixation>+</div></div>","none","500","test","","","","","","","","",""
"808","66","poldrack-categorize","184","331510","0.0-184.0","47817a4f-79b4-4ca3-84bf-af5e79014ae5","","1500","250","stim","","<div class = centerbox><div class = stroop-stim style = ""color:red"">BLUE</div></div>","66,71,82","1500","test","false","82","500","incongruent","red","blue","","",""
"-1","-1","poldrack-single-stim","185","332272","0.0-185.0","47817a4f-79b4-4ca3-84bf-af5e79014ae5","","500","500","fixation","","<div class = centerbox><div class = fixation>+</div></div>","none","500","test","","","","","","","","",""
"765","66","poldrack-categorize","186","334785","0.0-186.0","47817a4f-79b4-4ca3-84bf-af5e79014ae5","","1500","250","stim","","<div class = centerbox><div class = stroop-stim style = ""color:blue"">BLUE</div></div>","66,71,82","1500","test","true","66","500","congruent","blue","blue","","",""
"-1","-1","poldrack-single-stim","187","335545","0.0-187.0","47817a4f-79b4-4ca3-84bf-af5e79014ae5","","500","500","fixation","","<div class = centerbox><div class = fixation>+</div></div>","none","500","test","","","","","","","","",""
"1249","71","poldrack-categorize","188","338059","0.0-188.0","47817a4f-79b4-4ca3-84bf-af5e79014ae5","","1500","250","stim","","<div class = centerbox><div class = stroop-stim style = ""color:green"">RED</div></div>","66,71,82","1500","test","true","71","500","incongruent","green","red","","",""
"-1","-1","poldrack-single-stim","189","338819","0.0-189.0","47817a4f-79b4-4ca3-84bf-af5e79014ae5","","500","500","fixation","","<div class = centerbox><div class = fixation>+</div></div>","none","500","test","","","","","","","","",""
"516","71","poldrack-categorize","190","341332","0.0-190.0","47817a4f-79b4-4ca3-84bf-af5e79014ae5","","1500","250","stim","","<div class = centerbox><div class = stroop-stim style = ""color:green"">BLUE</div></div>","66,71,82","1500","test","true","71","500","incongruent","green","blue","","",""
"-1","-1","poldrack-single-stim","191","342093","0.0-191.0","47817a4f-79b4-4ca3-84bf-af5e79014ae5","","500","500","fixation","","<div class = centerbox><div class = fixation>+</div></div>","none","500","test","","","","","","","","",""
"-1","-1","poldrack-categorize","192","344606","0.0-192.0","47817a4f-79b4-4ca3-84bf-af5e79014ae5","","1500","250","stim","","<div class = centerbox><div class = stroop-stim style = ""color:red"">BLUE</div></div>","66,71,82","1500","test","false","82","500","incongruent","red","blue","","",""
"-1","-1","poldrack-single-stim","193","345367","0.0-193.0","47817a4f-79b4-4ca3-84bf-af5e79014ae5","","500","500","fixation","","<div class = centerbox><div class = fixation>+</div></div>","none","500","test","","","","","","","","",""
"516","82","poldrack-categorize","194","347882","0.0-194.0","47817a4f-79b4-4ca3-84bf-af5e79014ae5","","1500","250","stim","","<div class = centerbox><div class = stroop-stim style = ""color:red"">GREEN</div></div>","66,71,82","1500","test","true","82","500","incongruent","red","green","","",""
"-1","-1","poldrack-single-stim","195","348641","0.0-195.0","47817a4f-79b4-4ca3-84bf-af5e79014ae5","","500","500","fixation","","<div class = centerbox><div class = fixation>+</div></div>","none","500","test","","","","","","","","",""
"439","82","poldrack-categorize","196","351154","0.0-196.0","47817a4f-79b4-4ca3-84bf-af5e79014ae5","","1500","250","stim","","<div class = centerbox><div class = stroop-stim style = ""color:red"">GREEN</div></div>","66,71,82","1500","test","true","82","500","incongruent","red","green","","",""
"-1","-1","poldrack-single-stim","197","351914","0.0-197.0","47817a4f-79b4-4ca3-84bf-af5e79014ae5","","500","500","fixation","","<div class = centerbox><div class = fixation>+</div></div>","none","500","test","","","","","","","","",""
"1045","66","poldrack-categorize","198","354428","0.0-198.0","47817a4f-79b4-4ca3-84bf-af5e79014ae5","","1500","250","stim","","<div class = centerbox><div class = stroop-stim style = ""color:green"">RED</div></div>","66,71,82","1500","test","false","71","500","incongruent","green","red","","",""
"-1","-1","poldrack-single-stim","199","355188","0.0-199.0","47817a4f-79b4-4ca3-84bf-af5e79014ae5","","500","500","fixation","","<div class = centerbox><div class = fixation>+</div></div>","none","500","test","","","","","","","","",""
"798","82","poldrack-categorize","200","357701","0.0-200.0","47817a4f-79b4-4ca3-84bf-af5e79014ae5","","1500","250","stim","","<div class = centerbox><div class = stroop-stim style = ""color:red"">BLUE</div></div>","66,71,82","1500","test","true","82","500","incongruent","red","blue","","",""
"-1","-1","poldrack-single-stim","201","358462","0.0-201.0","47817a4f-79b4-4ca3-84bf-af5e79014ae5","","500","500","fixation","","<div class = centerbox><div class = fixation>+</div></div>","none","500","test","","","","","","","","",""
"482","82","poldrack-categorize","202","360975","0.0-202.0","47817a4f-79b4-4ca3-84bf-af5e79014ae5","","1500","250","stim","","<div class = centerbox><div class = stroop-stim style = ""color:red"">RED</div></div>","66,71,82","1500","test","true","82","500","congruent","red","red","","",""
"-1","-1","poldrack-single-stim","203","361736","0.0-203.0","47817a4f-79b4-4ca3-84bf-af5e79014ae5","","500","500","fixation","","<div class = centerbox><div class = fixation>+</div></div>","none","500","test","","","","","","","","",""
"774","66","poldrack-categorize","204","364246","0.0-204.0","47817a4f-79b4-4ca3-84bf-af5e79014ae5","","1500","250","stim","","<div class = centerbox><div class = stroop-stim style = ""color:blue"">RED</div></div>","66,71,82","1500","test","true","66","500","incongruent","blue","red","","",""
"-1","-1","poldrack-single-stim","205","365004","0.0-205.0","47817a4f-79b4-4ca3-84bf-af5e79014ae5","","500","500","fixation","","<div class = centerbox><div class = fixation>+</div></div>","none","500","test","","","","","","","","",""
"724","71","poldrack-categorize","206","367517","0.0-206.0","47817a4f-79b4-4ca3-84bf-af5e79014ae5","","1500","250","stim","","<div class = centerbox><div class = stroop-stim style = ""color:green"">GREEN</div></div>","66,71,82","1500","test","true","71","500","congruent","green","green","","",""
"-1","-1","poldrack-single-stim","207","368278","0.0-207.0","47817a4f-79b4-4ca3-84bf-af5e79014ae5","","500","500","fixation","","<div class = centerbox><div class = fixation>+</div></div>","none","500","test","","","","","","","","",""
"534","82","poldrack-categorize","208","370791","0.0-208.0","47817a4f-79b4-4ca3-84bf-af5e79014ae5","","1500","250","stim","","<div class = centerbox><div class = stroop-stim style = ""color:red"">RED</div></div>","66,71,82","1500","test","true","82","500","congruent","red","red","","",""
"-1","-1","poldrack-single-stim","209","371548","0.0-209.0","47817a4f-79b4-4ca3-84bf-af5e79014ae5","","500","500","fixation","","<div class = centerbox><div class = fixation>+</div></div>","none","500","test","","","","","","","","",""
"945","71","poldrack-categorize","210","374059","0.0-210.0","47817a4f-79b4-4ca3-84bf-af5e79014ae5","","1500","250","stim","","<div class = centerbox><div class = stroop-stim style = ""color:green"">RED</div></div>","66,71,82","1500","test","true","71","500","incongruent","green","red","","",""
"-1","-1","poldrack-single-stim","211","374814","0.0-211.0","47817a4f-79b4-4ca3-84bf-af5e79014ae5","","500","500","fixation","","<div class = centerbox><div class = fixation>+</div></div>","none","500","test","","","","","","","","",""
"646","82","poldrack-categorize","212","377327","0.0-212.0","47817a4f-79b4-4ca3-84bf-af5e79014ae5","","1500","250","stim","","<div class = centerbox><div class = stroop-stim style = ""color:red"">BLUE</div></div>","66,71,82","1500","test","true","82","500","incongruent","red","blue","","",""
"-1","-1","poldrack-single-stim","213","378084","0.0-213.0","47817a4f-79b4-4ca3-84bf-af5e79014ae5","","500","500","fixation","","<div class = centerbox><div class = fixation>+</div></div>","none","500","test","","","","","","","","",""
"672","71","poldrack-categorize","214","380595","0.0-214.0","47817a4f-79b4-4ca3-84bf-af5e79014ae5","","1500","250","stim","","<div class = centerbox><div class = stroop-stim style = ""color:blue"">BLUE</div></div>","66,71,82","1500","test","false","66","500","congruent","blue","blue","","",""
"-1","-1","poldrack-single-stim","215","381355","0.0-215.0","47817a4f-79b4-4ca3-84bf-af5e79014ae5","","500","500","fixation","","<div class = centerbox><div class = fixation>+</div></div>","none","500","test","","","","","","","","",""
"901","82","poldrack-categorize","216","383869","0.0-216.0","47817a4f-79b4-4ca3-84bf-af5e79014ae5","","1500","250","stim","","<div class = centerbox><div class = stroop-stim style = ""color:red"">RED</div></div>","66,71,82","1500","test","true","82","500","congruent","red","red","","",""
"-1","-1","poldrack-single-stim","217","384629","0.0-217.0","47817a4f-79b4-4ca3-84bf-af5e79014ae5","","500","500","fixation","","<div class = centerbox><div class = fixation>+</div></div>","none","500","test","","","","","","","","",""
"742","66","poldrack-categorize","218","387142","0.0-218.0","47817a4f-79b4-4ca3-84bf-af5e79014ae5","","1500","250","stim","","<div class = centerbox><div class = stroop-stim style = ""color:blue"">RED</div></div>","66,71,82","1500","test","true","66","500","incongruent","blue","red","","",""
"-1","-1","poldrack-single-stim","219","387903","0.0-219.0","47817a4f-79b4-4ca3-84bf-af5e79014ae5","","500","500","fixation","","<div class = centerbox><div class = fixation>+</div></div>","none","500","test","","","","","","","","",""
"888","66","poldrack-categorize","220","390417","0.0-220.0","47817a4f-79b4-4ca3-84bf-af5e79014ae5","","1500","250","stim","","<div class = centerbox><div class = stroop-stim style = ""color:blue"">BLUE</div></div>","66,71,82","1500","test","true","66","500","congruent","blue","blue","","",""
"-1","-1","poldrack-single-stim","221","391177","0.0-221.0","47817a4f-79b4-4ca3-84bf-af5e79014ae5","","500","500","fixation","","<div class = centerbox><div class = fixation>+</div></div>","none","500","test","","","","","","","","",""
"708","66","poldrack-categorize","222","393690","0.0-222.0","47817a4f-79b4-4ca3-84bf-af5e79014ae5","","1500","250","stim","","<div class = centerbox><div class = stroop-stim style = ""color:blue"">RED</div></div>","66,71,82","1500","test","true","66","500","incongruent","blue","red","","",""
"-1","-1","poldrack-single-stim","223","394451","0.0-223.0","47817a4f-79b4-4ca3-84bf-af5e79014ae5","","500","500","fixation","","<div class = centerbox><div class = fixation>+</div></div>","none","500","test","","","","","","","","",""
"698","82","poldrack-categorize","224","396964","0.0-224.0","47817a4f-79b4-4ca3-84bf-af5e79014ae5","","1500","250","stim","","<div class = centerbox><div class = stroop-stim style = ""color:red"">RED</div></div>","66,71,82","1500","test","true","82","500","congruent","red","red","","",""
"-1","-1","poldrack-single-stim","225","397720","0.0-225.0","47817a4f-79b4-4ca3-84bf-af5e79014ae5","","500","500","fixation","","<div class = centerbox><div class = fixation>+</div></div>","none","500","test","","","","","","","","",""
"467","82","poldrack-categorize","226","400232","0.0-226.0","47817a4f-79b4-4ca3-84bf-af5e79014ae5","","1500","250","stim","","<div class = centerbox><div class = stroop-stim style = ""color:red"">GREEN</div></div>","66,71,82","1500","test","true","82","500","incongruent","red","green","","",""
"-1","-1","poldrack-single-stim","227","400991","0.0-227.0","47817a4f-79b4-4ca3-84bf-af5e79014ae5","","500","500","fixation","","<div class = centerbox><div class = fixation>+</div></div>","none","500","test","","","","","","","","",""
"708","71","poldrack-categorize","228","403500","0.0-228.0","47817a4f-79b4-4ca3-84bf-af5e79014ae5","","1500","250","stim","","<div class = centerbox><div class = stroop-stim style = ""color:blue"">BLUE</div></div>","66,71,82","1500","test","false","66","500","congruent","blue","blue","","",""
"-1","-1","poldrack-single-stim","229","404260","0.0-229.0","47817a4f-79b4-4ca3-84bf-af5e79014ae5","","500","500","fixation","","<div class = centerbox><div class = fixation>+</div></div>","none","500","test","","","","","","","","",""
"855","66","poldrack-categorize","230","406774","0.0-230.0","47817a4f-79b4-4ca3-84bf-af5e79014ae5","","1500","250","stim","","<div class = centerbox><div class = stroop-stim style = ""color:blue"">RED</div></div>","66,71,82","1500","test","true","66","500","incongruent","blue","red","","",""
"-1","-1","poldrack-single-stim","231","407533","0.0-231.0","47817a4f-79b4-4ca3-84bf-af5e79014ae5","","500","500","fixation","","<div class = centerbox><div class = fixation>+</div></div>","none","500","test","","","","","","","","",""
"580","71","poldrack-categorize","232","410038","0.0-232.0","47817a4f-79b4-4ca3-84bf-af5e79014ae5","","1500","250","stim","","<div class = centerbox><div class = stroop-stim style = ""color:green"">GREEN</div></div>","66,71,82","1500","test","true","71","500","congruent","green","green","","",""
"-1","-1","poldrack-single-stim","233","410791","0.0-233.0","47817a4f-79b4-4ca3-84bf-af5e79014ae5","","500","500","fixation","","<div class = centerbox><div class = fixation>+</div></div>","none","500","test","","","","","","","","",""
"625","82","poldrack-categorize","234","413304","0.0-234.0","47817a4f-79b4-4ca3-84bf-af5e79014ae5","","1500","250","stim","","<div class = centerbox><div class = stroop-stim style = ""color:red"">GREEN</div></div>","66,71,82","1500","test","true","82","500","incongruent","red","green","","",""
"-1","-1","poldrack-single-stim","235","414064","0.0-235.0","47817a4f-79b4-4ca3-84bf-af5e79014ae5","","500","500","fixation","","<div class = centerbox><div class = fixation>+</div></div>","none","500","test","","","","","","","","",""
"715","82","poldrack-categorize","236","416574","0.0-236.0","47817a4f-79b4-4ca3-84bf-af5e79014ae5","","1500","250","stim","","<div class = centerbox><div class = stroop-stim style = ""color:red"">RED</div></div>","66,71,82","1500","test","true","82","500","congruent","red","red","","",""
"-1","-1","poldrack-single-stim","237","417332","0.0-237.0","47817a4f-79b4-4ca3-84bf-af5e79014ae5","","500","500","fixation","","<div class = centerbox><div class = fixation>+</div></div>","none","500","test","","","","","","","","",""
"833","71","poldrack-categorize","238","419846","0.0-238.0","47817a4f-79b4-4ca3-84bf-af5e79014ae5","","1500","250","stim","","<div class = centerbox><div class = stroop-stim style = ""color:green"">BLUE</div></div>","66,71,82","1500","test","true","71","500","incongruent","green","blue","","",""
"-1","-1","poldrack-single-stim","239","420606","0.0-239.0","47817a4f-79b4-4ca3-84bf-af5e79014ae5","","500","500","fixation","","<div class = centerbox><div class = fixation>+</div></div>","none","500","test","","","","","","","","",""
"518","71","poldrack-categorize","240","423120","0.0-240.0","47817a4f-79b4-4ca3-84bf-af5e79014ae5","","1500","250","stim","","<div class = centerbox><div class = stroop-stim style = ""color:green"">BLUE</div></div>","66,71,82","1500","test","true","71","500","incongruent","green","blue","","",""
"-1","-1","poldrack-single-stim","241","423874","0.0-241.0","47817a4f-79b4-4ca3-84bf-af5e79014ae5","","500","500","fixation","","<div class = centerbox><div class = fixation>+</div></div>","none","500","test","","","","","","","","",""
"703","66","poldrack-categorize","242","426388","0.0-242.0","47817a4f-79b4-4ca3-84bf-af5e79014ae5","","1500","250","stim","","<div class = centerbox><div class = stroop-stim style = ""color:blue"">GREEN</div></div>","66,71,82","1500","test","true","66","500","incongruent","blue","green","","",""
"-1","-1","poldrack-single-stim","243","427148","0.0-243.0","47817a4f-79b4-4ca3-84bf-af5e79014ae5","","500","500","fixation","","<div class = centerbox><div class = fixation>+</div></div>","none","500","test","","","","","","","","",""
"625","71","poldrack-categorize","244","429660","0.0-244.0","47817a4f-79b4-4ca3-84bf-af5e79014ae5","","1500","250","stim","","<div class = centerbox><div class = stroop-stim style = ""color:green"">GREEN</div></div>","66,71,82","1500","test","true","71","500","congruent","green","green","","",""
"24411","","survey-text","245","454327","0.0-246.0","47817a4f-79b4-4ca3-84bf-af5e79014ae5","","","","post task questions","","","","","","","","","","","","{""Q0"":""Press letters that corresponded to ink color"",""Q1"":""""}","",""
"1930","13","poldrack-text","246","457259","0.0-247.0","47817a4f-79b4-4ca3-84bf-af5e79014ae5","<div class = centerbox><p class = center-block-text>Thanks for completing this task!</p><p class = center-block-text>Press <strong>enter</strong> to continue.</p></div>","1930","0","end","","","","","","","","","","","","","stroop","true"
"382853","13","text","247","840149","0.0-248.0","47817a4f-79b4-4ca3-84bf-af5e79014ae5","","","","","","","","","","","","","","","","","",""
