rt,key_press,trial_type,trial_index,time_elapsed,internal_node_id,subject,text,block_duration,timing_post_trial,trial_id,view_history,stimulus,possible_responses,stim_duration,exp_stage,correct,correct_response,feedback_duration,condition,stim_color,stim_word,responses,exp_id,credit_var,stim_place,stim_id10333,13,text,0,10335,0.0-0.0,5dc6bfec-8596-4d43-a89e-b5c8365ae1c3,,,,,,,,,,,,,,,,,,,,1881,13,poldrack-text,1,13221,0.0-1.0-0.0,5dc6bfec-8596-4d43-a89e-b5c8365ae1c3,<div class = centerbox><p class = center-block-text>Welcome to the experiment. This experiment will take about 8 minutes. Press <strong>enter</strong> to begin.</p></div>,1881,0,instruction,,,,,,,,,,,,,,,,28201,,poldrack-instructions,2,41422,0.0-1.0-1.0,5dc6bfec-8596-4d43-a89e-b5c8365ae1c3,,,,instruction,"[{""page_index"":0,""viewing_time"":28200}]",,,,,,,,,,,,,,,2179,13,poldrack-text,3,44603,0.0-2.0,5dc6bfec-8596-4d43-a89e-b5c8365ae1c3,"<div class = centerbox><p class = block-text>We will start with a few practice trials. Remember, press the key corresponding to the <strong>ink</strong> color of the word: ""r"" for words colored red, ""b"" for words colored blue, and ""g"" for words colored green.</p><p class = block-text>Press <strong>enter</strong> to begin practice.</p></div>",2179,1000,practice_intro,,,,,,,,,,,,,,,,-1,-1,poldrack-single-stim,4,46110,0.0-3.0,5dc6bfec-8596-4d43-a89e-b5c8365ae1c3,,500,500,fixation,,<div class = centerbox><div class = fixation>+</div></div>,none,500,practice,,,,,,,,,,,863,71,poldrack-categorize,5,48619,0.0-4.0,5dc6bfec-8596-4d43-a89e-b5c8365ae1c3,,1500,250,stim,,"<div class = centerbox><div class = stroop-stim style = ""color:blue"">BLUE</div></div>","66,71,82",1500,practice,FALSE,66,500,congruent,blue,blue,,,,,-1,-1,poldrack-single-stim,6,49374,0.0-5.0,5dc6bfec-8596-4d43-a89e-b5c8365ae1c3,,500,500,fixation,,<div class = centerbox><div class = fixation>+</div></div>,none,500,practice,,,,,,,,,,,-1,-1,poldrack-categorize,7,51884,0.0-6.0,5dc6bfec-8596-4d43-a89e-b5c8365ae1c3,,1500,250,stim,,"<div class = centerbox><div class = stroop-stim style = ""color:red"">RED</div></div>","66,71,82",1500,practice,FALSE,82,500,congruent,red,red,,,,,-1,-1,poldrack-single-stim,8,52638,0.0-7.0,5dc6bfec-8596-4d43-a89e-b5c8365ae1c3,,500,500,fixation,,<div class = centerbox><div class = fixation>+</div></div>,none,500,practice,,,,,,,,,,,458,82,poldrack-categorize,9,55152,0.0-8.0,5dc6bfec-8596-4d43-a89e-b5c8365ae1c3,,1500,250,stim,,"<div class = centerbox><div class = stroop-stim style = ""color:red"">RED</div></div>","66,71,82",1500,practice,TRUE,82,500,congruent,red,red,,,,,-1,-1,poldrack-single-stim,10,55913,0.0-9.0,5dc6bfec-8596-4d43-a89e-b5c8365ae1c3,,500,500,fixation,,<div class = centerbox><div class = fixation>+</div></div>,none,500,practice,,,,,,,,,,,688,66,poldrack-categorize,11,58426,0.0-10.0,5dc6bfec-8596-4d43-a89e-b5c8365ae1c3,,1500,250,stim,,"<div class = centerbox><div class = stroop-stim style = ""color:green"">GREEN</div></div>","66,71,82",1500,practice,FALSE,71,500,congruent,green,green,,,,,-1,-1,poldrack-single-stim,12,59187,0.0-11.0,5dc6bfec-8596-4d43-a89e-b5c8365ae1c3,,500,500,fixation,,<div class = centerbox><div class = fixation>+</div></div>,none,500,practice,,,,,,,,,,,1062,71,poldrack-categorize,13,61700,0.0-12.0,5dc6bfec-8596-4d43-a89e-b5c8365ae1c3,,1500,250,stim,,"<div class = centerbox><div class = stroop-stim style = ""color:blue"">RED</div></div>","66,71,82",1500,practice,FALSE,66,500,incongruent,blue,red,,,,,-1,-1,poldrack-single-stim,14,62460,0.0-13.0,5dc6bfec-8596-4d43-a89e-b5c8365ae1c3,,500,500,fixation,,<div class = centerbox><div class = fixation>+</div></div>,none,500,practice,,,,,,,,,,,614,82,poldrack-categorize,15,64974,0.0-14.0,5dc6bfec-8596-4d43-a89e-b5c8365ae1c3,,1500,250,stim,,"<div class = centerbox><div class = stroop-stim style = ""color:red"">GREEN</div></div>","66,71,82",1500,practice,TRUE,82,500,incongruent,red,green,,,,,-1,-1,poldrack-single-stim,16,65734,0.0-15.0,5dc6bfec-8596-4d43-a89e-b5c8365ae1c3,,500,500,fixation,,<div class = centerbox><div class = fixation>+</div></div>,none,500,practice,,,,,,,,,,,929,71,poldrack-categorize,17,68247,0.0-16.0,5dc6bfec-8596-4d43-a89e-b5c8365ae1c3,,1500,250,stim,,"<div class = centerbox><div class = stroop-stim style = ""color:green"">GREEN</div></div>","66,71,82",1500,practice,TRUE,71,500,congruent,green,green,,,,,-1,-1,poldrack-single-stim,18,69008,0.0-17.0,5dc6bfec-8596-4d43-a89e-b5c8365ae1c3,,500,500,fixation,,<div class = centerbox><div class = fixation>+</div></div>,none,500,practice,,,,,,,,,,,511,71,poldrack-categorize,19,71521,0.0-18.0,5dc6bfec-8596-4d43-a89e-b5c8365ae1c3,,1500,250,stim,,"<div class = centerbox><div class = stroop-stim style = ""color:green"">GREEN</div></div>","66,71,82",1500,practice,TRUE,71,500,congruent,green,green,,,,,-1,-1,poldrack-single-stim,20,72282,0.0-19.0,5dc6bfec-8596-4d43-a89e-b5c8365ae1c3,,500,500,fixation,,<div class = centerbox><div class = fixation>+</div></div>,none,500,practice,,,,,,,,,,,509,82,poldrack-categorize,21,74795,0.0-20.0,5dc6bfec-8596-4d43-a89e-b5c8365ae1c3,,1500,250,stim,,"<div class = centerbox><div class = stroop-stim style = ""color:red"">RED</div></div>","66,71,82",1500,practice,TRUE,82,500,congruent,red,red,,,,,-1,-1,poldrack-single-stim,22,75556,0.0-21.0,5dc6bfec-8596-4d43-a89e-b5c8365ae1c3,,500,500,fixation,,<div class = centerbox><div class = fixation>+</div></div>,none,500,practice,,,,,,,,,,,1093,66,poldrack-categorize,23,78069,0.0-22.0,5dc6bfec-8596-4d43-a89e-b5c8365ae1c3,,1500,250,stim,,"<div class = centerbox><div class = stroop-stim style = ""color:blue"">GREEN</div></div>","66,71,82",1500,practice,TRUE,66,500,incongruent,blue,green,,,,,-1,-1,poldrack-single-stim,24,78829,0.0-23.0,5dc6bfec-8596-4d43-a89e-b5c8365ae1c3,,500,500,fixation,,<div class = centerbox><div class = fixation>+</div></div>,none,500,practice,,,,,,,,,,,906,66,poldrack-categorize,25,81343,0.0-24.0,5dc6bfec-8596-4d43-a89e-b5c8365ae1c3,,1500,250,stim,,"<div class = centerbox><div class = stroop-stim style = ""color:blue"">RED</div></div>","66,71,82",1500,practice,TRUE,66,500,incongruent,blue,red,,,,,-1,-1,poldrack-single-stim,26,82103,0.0-25.0,5dc6bfec-8596-4d43-a89e-b5c8365ae1c3,,500,500,fixation,,<div class = centerbox><div class = fixation>+</div></div>,none,500,practice,,,,,,,,,,,760,71,poldrack-categorize,27,84616,0.0-26.0,5dc6bfec-8596-4d43-a89e-b5c8365ae1c3,,1500,250,stim,,"<div class = centerbox><div class = stroop-stim style = ""color:green"">RED</div></div>","66,71,82",1500,practice,TRUE,71,500,incongruent,green,red,,,,,-1,-1,poldrack-single-stim,28,85377,0.0-27.0,5dc6bfec-8596-4d43-a89e-b5c8365ae1c3,,500,500,fixation,,<div class = centerbox><div class = fixation>+</div></div>,none,500,practice,,,,,,,,,,,653,71,poldrack-categorize,29,87890,0.0-28.0,5dc6bfec-8596-4d43-a89e-b5c8365ae1c3,,1500,250,stim,,"<div class = centerbox><div class = stroop-stim style = ""color:green"">BLUE</div></div>","66,71,82",1500,practice,TRUE,71,500,incongruent,green,blue,,,,,-1,-1,poldrack-single-stim,30,88648,0.0-29.0,5dc6bfec-8596-4d43-a89e-b5c8365ae1c3,,500,500,fixation,,<div class = centerbox><div class = fixation>+</div></div>,none,500,practice,,,,,,,,,,,794,66,poldrack-categorize,31,91158,0.0-30.0,5dc6bfec-8596-4d43-a89e-b5c8365ae1c3,,1500,250,stim,,"<div class = centerbox><div class = stroop-stim style = ""color:blue"">BLUE</div></div>","66,71,82",1500,practice,TRUE,66,500,congruent,blue,blue,,,,,-1,-1,poldrack-single-stim,32,91919,0.0-31.0,5dc6bfec-8596-4d43-a89e-b5c8365ae1c3,,500,500,fixation,,<div class = centerbox><div class = fixation>+</div></div>,none,500,practice,,,,,,,,,,,567,82,poldrack-categorize,33,94432,0.0-32.0,5dc6bfec-8596-4d43-a89e-b5c8365ae1c3,,1500,250,stim,,"<div class = centerbox><div class = stroop-stim style = ""color:red"">BLUE</div></div>","66,71,82",1500,practice,TRUE,82,500,incongruent,red,blue,,,,,-1,-1,poldrack-single-stim,34,95187,0.0-33.0,5dc6bfec-8596-4d43-a89e-b5c8365ae1c3,,500,500,fixation,,<div class = centerbox><div class = fixation>+</div></div>,none,500,practice,,,,,,,,,,,595,66,poldrack-categorize,35,97700,0.0-34.0,5dc6bfec-8596-4d43-a89e-b5c8365ae1c3,,1500,250,stim,,"<div class = centerbox><div class = stroop-stim style = ""color:blue"">BLUE</div></div>","66,71,82",1500,practice,TRUE,66,500,congruent,blue,blue,,,,,-1,-1,poldrack-single-stim,36,98461,0.0-35.0,5dc6bfec-8596-4d43-a89e-b5c8365ae1c3,,500,500,fixation,,<div class = centerbox><div class = fixation>+</div></div>,none,500,practice,,,,,,,,,,,754,82,poldrack-categorize,37,100974,0.0-36.0,5dc6bfec-8596-4d43-a89e-b5c8365ae1c3,,1500,250,stim,,"<div class = centerbox><div class = stroop-stim style = ""color:red"">GREEN</div></div>","66,71,82",1500,practice,TRUE,82,500,incongruent,red,green,,,,,-1,-1,poldrack-single-stim,38,101734,0.0-37.0,5dc6bfec-8596-4d43-a89e-b5c8365ae1c3,,500,500,fixation,,<div class = centerbox><div class = fixation>+</div></div>,none,500,practice,,,,,,,,,,,640,66,poldrack-categorize,39,104248,0.0-38.0,5dc6bfec-8596-4d43-a89e-b5c8365ae1c3,,1500,250,stim,,"<div class = centerbox><div class = stroop-stim style = ""color:blue"">GREEN</div></div>","66,71,82",1500,practice,TRUE,66,500,incongruent,blue,green,,,,,-1,-1,poldrack-single-stim,40,105008,0.0-39.0,5dc6bfec-8596-4d43-a89e-b5c8365ae1c3,,500,500,fixation,,<div class = centerbox><div class = fixation>+</div></div>,none,500,practice,,,,,,,,,,,517,71,poldrack-categorize,41,107518,0.0-40.0,5dc6bfec-8596-4d43-a89e-b5c8365ae1c3,,1500,250,stim,,"<div class = centerbox><div class = stroop-stim style = ""color:green"">GREEN</div></div>","66,71,82",1500,practice,TRUE,71,500,congruent,green,green,,,,,-1,-1,poldrack-single-stim,42,108276,0.0-41.0,5dc6bfec-8596-4d43-a89e-b5c8365ae1c3,,500,500,fixation,,<div class = centerbox><div class = fixation>+</div></div>,none,500,practice,,,,,,,,,,,481,82,poldrack-categorize,43,110788,0.0-42.0,5dc6bfec-8596-4d43-a89e-b5c8365ae1c3,,1500,250,stim,,"<div class = centerbox><div class = stroop-stim style = ""color:red"">RED</div></div>","66,71,82",1500,practice,TRUE,82,500,congruent,red,red,,,,,-1,-1,poldrack-single-stim,44,111544,0.0-43.0,5dc6bfec-8596-4d43-a89e-b5c8365ae1c3,,500,500,fixation,,<div class = centerbox><div class = fixation>+</div></div>,none,500,practice,,,,,,,,,,,845,66,poldrack-categorize,45,114058,0.0-44.0,5dc6bfec-8596-4d43-a89e-b5c8365ae1c3,,1500,250,stim,,"<div class = centerbox><div class = stroop-stim style = ""color:blue"">BLUE</div></div>","66,71,82",1500,practice,TRUE,66,500,congruent,blue,blue,,,,,-1,-1,poldrack-single-stim,46,114812,0.0-45.0,5dc6bfec-8596-4d43-a89e-b5c8365ae1c3,,500,500,fixation,,<div class = centerbox><div class = fixation>+</div></div>,none,500,practice,,,,,,,,,,,497,71,poldrack-categorize,47,117325,0.0-46.0,5dc6bfec-8596-4d43-a89e-b5c8365ae1c3,,1500,250,stim,,"<div class = centerbox><div class = stroop-stim style = ""color:green"">BLUE</div></div>","66,71,82",1500,practice,TRUE,71,500,incongruent,green,blue,,,,,-1,-1,poldrack-single-stim,48,118086,0.0-47.0,5dc6bfec-8596-4d43-a89e-b5c8365ae1c3,,500,500,fixation,,<div class = centerbox><div class = fixation>+</div></div>,none,500,practice,,,,,,,,,,,726,71,poldrack-categorize,49,120599,0.0-48.0,5dc6bfec-8596-4d43-a89e-b5c8365ae1c3,,1500,250,stim,,"<div class = centerbox><div class = stroop-stim style = ""color:green"">RED</div></div>","66,71,82",1500,practice,TRUE,71,500,incongruent,green,red,,,,,-1,-1,poldrack-single-stim,50,121360,0.0-49.0,5dc6bfec-8596-4d43-a89e-b5c8365ae1c3,,500,500,fixation,,<div class = centerbox><div class = fixation>+</div></div>,none,500,practice,,,,,,,,,,,708,82,poldrack-categorize,51,123873,0.0-50.0,5dc6bfec-8596-4d43-a89e-b5c8365ae1c3,,1500,250,stim,,"<div class = centerbox><div class = stroop-stim style = ""color:red"">BLUE</div></div>","66,71,82",1500,practice,TRUE,82,500,incongruent,red,blue,,,,,5461,13,poldrack-text,52,129589,0.0-52.0,5dc6bfec-8596-4d43-a89e-b5c8365ae1c3,<div class = centerbox><p class = center-block-text>We will now start the test. Respond exactly like you did during practice.</p><p class = center-block-text>Press <strong>enter</strong> to begin the test.</p></div>,5461,1000,test_intro,,,,,,,,,,,,,,,,-1,-1,poldrack-single-stim,53,131100,0.0-53.0,5dc6bfec-8596-4d43-a89e-b5c8365ae1c3,,500,500,fixation,,<div class = centerbox><div class = fixation>+</div></div>,none,500,test,,,,,,,,,,,724,66,poldrack-categorize,54,133607,0.0-54.0,5dc6bfec-8596-4d43-a89e-b5c8365ae1c3,,1500,250,stim,,"<div class = centerbox><div class = stroop-stim style = ""color:blue"">GREEN</div></div>","66,71,82",1500,test,TRUE,66,500,incongruent,blue,green,,,,,-1,-1,poldrack-single-stim,55,134368,0.0-55.0,5dc6bfec-8596-4d43-a89e-b5c8365ae1c3,,500,500,fixation,,<div class = centerbox><div class = fixation>+</div></div>,none,500,test,,,,,,,,,,,533,66,poldrack-categorize,56,136875,0.0-56.0,5dc6bfec-8596-4d43-a89e-b5c8365ae1c3,,1500,250,stim,,"<div class = centerbox><div class = stroop-stim style = ""color:blue"">BLUE</div></div>","66,71,82",1500,test,TRUE,66,500,congruent,blue,blue,,,,,-1,-1,poldrack-single-stim,57,137633,0.0-57.0,5dc6bfec-8596-4d43-a89e-b5c8365ae1c3,,500,500,fixation,,<div class = centerbox><div class = fixation>+</div></div>,none,500,test,,,,,,,,,,,512,82,poldrack-categorize,58,140144,0.0-58.0,5dc6bfec-8596-4d43-a89e-b5c8365ae1c3,,1500,250,stim,,"<div class = centerbox><div class = stroop-stim style = ""color:red"">RED</div></div>","66,71,82",1500,test,TRUE,82,500,congruent,red,red,,,,,-1,-1,poldrack-single-stim,59,140904,0.0-59.0,5dc6bfec-8596-4d43-a89e-b5c8365ae1c3,,500,500,fixation,,<div class = centerbox><div class = fixation>+</div></div>,none,500,test,,,,,,,,,,,619,66,poldrack-categorize,60,143414,0.0-60.0,5dc6bfec-8596-4d43-a89e-b5c8365ae1c3,,1500,250,stim,,"<div class = centerbox><div class = stroop-stim style = ""color:blue"">RED</div></div>","66,71,82",1500,test,TRUE,66,500,incongruent,blue,red,,,,,-1,-1,poldrack-single-stim,61,144172,0.0-61.0,5dc6bfec-8596-4d43-a89e-b5c8365ae1c3,,500,500,fixation,,<div class = centerbox><div class = fixation>+</div></div>,none,500,test,,,,,,,,,,,567,82,poldrack-categorize,62,146685,0.0-62.0,5dc6bfec-8596-4d43-a89e-b5c8365ae1c3,,1500,250,stim,,"<div class = centerbox><div class = stroop-stim style = ""color:red"">BLUE</div></div>","66,71,82",1500,test,TRUE,82,500,incongruent,red,blue,,,,,-1,-1,poldrack-single-stim,63,147446,0.0-63.0,5dc6bfec-8596-4d43-a89e-b5c8365ae1c3,,500,500,fixation,,<div class = centerbox><div class = fixation>+</div></div>,none,500,test,,,,,,,,,,,582,71,poldrack-categorize,64,149965,0.0-64.0,5dc6bfec-8596-4d43-a89e-b5c8365ae1c3,,1500,250,stim,,"<div class = centerbox><div class = stroop-stim style = ""color:green"">GREEN</div></div>","66,71,82",1500,test,TRUE,71,500,congruent,green,green,,,,,-1,-1,poldrack-single-stim,65,150722,0.0-65.0,5dc6bfec-8596-4d43-a89e-b5c8365ae1c3,,500,500,fixation,,<div class = centerbox><div class = fixation>+</div></div>,none,500,test,,,,,,,,,,,715,66,poldrack-categorize,66,153233,0.0-66.0,5dc6bfec-8596-4d43-a89e-b5c8365ae1c3,,1500,250,stim,,"<div class = centerbox><div class = stroop-stim style = ""color:blue"">BLUE</div></div>","66,71,82",1500,test,TRUE,66,500,congruent,blue,blue,,,,,-1,-1,poldrack-single-stim,67,153994,0.0-67.0,5dc6bfec-8596-4d43-a89e-b5c8365ae1c3,,500,500,fixation,,<div class = centerbox><div class = fixation>+</div></div>,none,500,test,,,,,,,,,,,659,71,poldrack-categorize,68,156507,0.0-68.0,5dc6bfec-8596-4d43-a89e-b5c8365ae1c3,,1500,250,stim,,"<div class = centerbox><div class = stroop-stim style = ""color:green"">GREEN</div></div>","66,71,82",1500,test,TRUE,71,500,congruent,green,green,,,,,-1,-1,poldrack-single-stim,69,157265,0.0-69.0,5dc6bfec-8596-4d43-a89e-b5c8365ae1c3,,500,500,fixation,,<div class = centerbox><div class = fixation>+</div></div>,none,500,test,,,,,,,,,,,757,82,poldrack-categorize,70,159775,0.0-70.0,5dc6bfec-8596-4d43-a89e-b5c8365ae1c3,,1500,250,stim,,"<div class = centerbox><div class = stroop-stim style = ""color:red"">GREEN</div></div>","66,71,82",1500,test,TRUE,82,500,incongruent,red,green,,,,,-1,-1,poldrack-single-stim,71,160534,0.0-71.0,5dc6bfec-8596-4d43-a89e-b5c8365ae1c3,,500,500,fixation,,<div class = centerbox><div class = fixation>+</div></div>,none,500,test,,,,,,,,,,,869,66,poldrack-categorize,72,163049,0.0-72.0,5dc6bfec-8596-4d43-a89e-b5c8365ae1c3,,1500,250,stim,,"<div class = centerbox><div class = stroop-stim style = ""color:blue"">RED</div></div>","66,71,82",1500,test,TRUE,66,500,incongruent,blue,red,,,,,-1,-1,poldrack-single-stim,73,163809,0.0-73.0,5dc6bfec-8596-4d43-a89e-b5c8365ae1c3,,500,500,fixation,,<div class = centerbox><div class = fixation>+</div></div>,none,500,test,,,,,,,,,,,755,71,poldrack-categorize,74,166322,0.0-74.0,5dc6bfec-8596-4d43-a89e-b5c8365ae1c3,,1500,250,stim,,"<div class = centerbox><div class = stroop-stim style = ""color:green"">RED</div></div>","66,71,82",1500,test,TRUE,71,500,incongruent,green,red,,,,,-1,-1,poldrack-single-stim,75,167083,0.0-75.0,5dc6bfec-8596-4d43-a89e-b5c8365ae1c3,,500,500,fixation,,<div class = centerbox><div class = fixation>+</div></div>,none,500,test,,,,,,,,,,,600,82,poldrack-categorize,76,169596,0.0-76.0,5dc6bfec-8596-4d43-a89e-b5c8365ae1c3,,1500,250,stim,,"<div class = centerbox><div class = stroop-stim style = ""color:red"">BLUE</div></div>","66,71,82",1500,test,TRUE,82,500,incongruent,red,blue,,,,,-1,-1,poldrack-single-stim,77,170357,0.0-77.0,5dc6bfec-8596-4d43-a89e-b5c8365ae1c3,,500,500,fixation,,<div class = centerbox><div class = fixation>+</div></div>,none,500,test,,,,,,,,,,,638,66,poldrack-categorize,78,172870,0.0-78.0,5dc6bfec-8596-4d43-a89e-b5c8365ae1c3,,1500,250,stim,,"<div class = centerbox><div class = stroop-stim style = ""color:blue"">BLUE</div></div>","66,71,82",1500,test,TRUE,66,500,congruent,blue,blue,,,,,-1,-1,poldrack-single-stim,79,173626,0.0-79.0,5dc6bfec-8596-4d43-a89e-b5c8365ae1c3,,500,500,fixation,,<div class = centerbox><div class = fixation>+</div></div>,none,500,test,,,,,,,,,,,687,71,poldrack-categorize,80,176138,0.0-80.0,5dc6bfec-8596-4d43-a89e-b5c8365ae1c3,,1500,250,stim,,"<div class = centerbox><div class = stroop-stim style = ""color:green"">BLUE</div></div>","66,71,82",1500,test,TRUE,71,500,incongruent,green,blue,,,,,-1,-1,poldrack-single-stim,81,176899,0.0-81.0,5dc6bfec-8596-4d43-a89e-b5c8365ae1c3,,500,500,fixation,,<div class = centerbox><div class = fixation>+</div></div>,none,500,test,,,,,,,,,,,657,71,poldrack-categorize,82,179412,0.0-82.0,5dc6bfec-8596-4d43-a89e-b5c8365ae1c3,,1500,250,stim,,"<div class = centerbox><div class = stroop-stim style = ""color:green"">GREEN</div></div>","66,71,82",1500,test,TRUE,71,500,congruent,green,green,,,,,-1,-1,poldrack-single-stim,83,180172,0.0-83.0,5dc6bfec-8596-4d43-a89e-b5c8365ae1c3,,500,500,fixation,,<div class = centerbox><div class = fixation>+</div></div>,none,500,test,,,,,,,,,,,703,66,poldrack-categorize,84,182686,0.0-84.0,5dc6bfec-8596-4d43-a89e-b5c8365ae1c3,,1500,250,stim,,"<div class = centerbox><div class = stroop-stim style = ""color:blue"">BLUE</div></div>","66,71,82",1500,test,TRUE,66,500,congruent,blue,blue,,,,,-1,-1,poldrack-single-stim,85,183446,0.0-85.0,5dc6bfec-8596-4d43-a89e-b5c8365ae1c3,,500,500,fixation,,<div class = centerbox><div class = fixation>+</div></div>,none,500,test,,,,,,,,,,,572,82,poldrack-categorize,86,185954,0.0-86.0,5dc6bfec-8596-4d43-a89e-b5c8365ae1c3,,1500,250,stim,,"<div class = centerbox><div class = stroop-stim style = ""color:red"">RED</div></div>","66,71,82",1500,test,TRUE,82,500,congruent,red,red,,,,,-1,-1,poldrack-single-stim,87,186714,0.0-87.0,5dc6bfec-8596-4d43-a89e-b5c8365ae1c3,,500,500,fixation,,<div class = centerbox><div class = fixation>+</div></div>,none,500,test,,,,,,,,,,,774,66,poldrack-categorize,88,189227,0.0-88.0,5dc6bfec-8596-4d43-a89e-b5c8365ae1c3,,1500,250,stim,,"<div class = centerbox><div class = stroop-stim style = ""color:blue"">GREEN</div></div>","66,71,82",1500,test,TRUE,66,500,incongruent,blue,green,,,,,-1,-1,poldrack-single-stim,89,189988,0.0-89.0,5dc6bfec-8596-4d43-a89e-b5c8365ae1c3,,500,500,fixation,,<div class = centerbox><div class = fixation>+</div></div>,none,500,test,,,,,,,,,,,604,66,poldrack-categorize,90,192501,0.0-90.0,5dc6bfec-8596-4d43-a89e-b5c8365ae1c3,,1500,250,stim,,"<div class = centerbox><div class = stroop-stim style = ""color:blue"">BLUE</div></div>","66,71,82",1500,test,TRUE,66,500,congruent,blue,blue,,,,,-1,-1,poldrack-single-stim,91,193256,0.0-91.0,5dc6bfec-8596-4d43-a89e-b5c8365ae1c3,,500,500,fixation,,<div class = centerbox><div class = fixation>+</div></div>,none,500,test,,,,,,,,,,,744,71,poldrack-categorize,92,195769,0.0-92.0,5dc6bfec-8596-4d43-a89e-b5c8365ae1c3,,1500,250,stim,,"<div class = centerbox><div class = stroop-stim style = ""color:green"">BLUE</div></div>","66,71,82",1500,test,TRUE,71,500,incongruent,green,blue,,,,,-1,-1,poldrack-single-stim,93,196530,0.0-93.0,5dc6bfec-8596-4d43-a89e-b5c8365ae1c3,,500,500,fixation,,<div class = centerbox><div class = fixation>+</div></div>,none,500,test,,,,,,,,,,,487,71,poldrack-categorize,94,199043,0.0-94.0,5dc6bfec-8596-4d43-a89e-b5c8365ae1c3,,1500,250,stim,,"<div class = centerbox><div class = stroop-stim style = ""color:green"">GREEN</div></div>","66,71,82",1500,test,TRUE,71,500,congruent,green,green,,,,,-1,-1,poldrack-single-stim,95,199804,0.0-95.0,5dc6bfec-8596-4d43-a89e-b5c8365ae1c3,,500,500,fixation,,<div class = centerbox><div class = fixation>+</div></div>,none,500,test,,,,,,,,,,,646,82,poldrack-categorize,96,202317,0.0-96.0,5dc6bfec-8596-4d43-a89e-b5c8365ae1c3,,1500,250,stim,,"<div class = centerbox><div class = stroop-stim style = ""color:red"">GREEN</div></div>","66,71,82",1500,test,TRUE,82,500,incongruent,red,green,,,,,-1,-1,poldrack-single-stim,97,203077,0.0-97.0,5dc6bfec-8596-4d43-a89e-b5c8365ae1c3,,500,500,fixation,,<div class = centerbox><div class = fixation>+</div></div>,none,500,test,,,,,,,,,,,685,82,poldrack-categorize,98,205585,0.0-98.0,5dc6bfec-8596-4d43-a89e-b5c8365ae1c3,,1500,250,stim,,"<div class = centerbox><div class = stroop-stim style = ""color:red"">BLUE</div></div>","66,71,82",1500,test,TRUE,82,500,incongruent,red,blue,,,,,-1,-1,poldrack-single-stim,99,206346,0.0-99.0,5dc6bfec-8596-4d43-a89e-b5c8365ae1c3,,500,500,fixation,,<div class = centerbox><div class = fixation>+</div></div>,none,500,test,,,,,,,,,,,631,66,poldrack-categorize,100,208859,0.0-100.0,5dc6bfec-8596-4d43-a89e-b5c8365ae1c3,,1500,250,stim,,"<div class = centerbox><div class = stroop-stim style = ""color:blue"">GREEN</div></div>","66,71,82",1500,test,TRUE,66,500,incongruent,blue,green,,,,,-1,-1,poldrack-single-stim,101,209619,0.0-101.0,5dc6bfec-8596-4d43-a89e-b5c8365ae1c3,,500,500,fixation,,<div class = centerbox><div class = fixation>+</div></div>,none,500,test,,,,,,,,,,,532,82,poldrack-categorize,102,212132,0.0-102.0,5dc6bfec-8596-4d43-a89e-b5c8365ae1c3,,1500,250,stim,,"<div class = centerbox><div class = stroop-stim style = ""color:red"">RED</div></div>","66,71,82",1500,test,TRUE,82,500,congruent,red,red,,,,,-1,-1,poldrack-single-stim,103,212893,0.0-103.0,5dc6bfec-8596-4d43-a89e-b5c8365ae1c3,,500,500,fixation,,<div class = centerbox><div class = fixation>+</div></div>,none,500,test,,,,,,,,,,,795,71,poldrack-categorize,104,215406,0.0-104.0,5dc6bfec-8596-4d43-a89e-b5c8365ae1c3,,1500,250,stim,,"<div class = centerbox><div class = stroop-stim style = ""color:green"">RED</div></div>","66,71,82",1500,test,TRUE,71,500,incongruent,green,red,,,,,-1,-1,poldrack-single-stim,105,216167,0.0-105.0,5dc6bfec-8596-4d43-a89e-b5c8365ae1c3,,500,500,fixation,,<div class = centerbox><div class = fixation>+</div></div>,none,500,test,,,,,,,,,,,641,71,poldrack-categorize,106,218680,0.0-106.0,5dc6bfec-8596-4d43-a89e-b5c8365ae1c3,,1500,250,stim,,"<div class = centerbox><div class = stroop-stim style = ""color:green"">RED</div></div>","66,71,82",1500,test,TRUE,71,500,incongruent,green,red,,,,,-1,-1,poldrack-single-stim,107,219441,0.0-107.0,5dc6bfec-8596-4d43-a89e-b5c8365ae1c3,,500,500,fixation,,<div class = centerbox><div class = fixation>+</div></div>,none,500,test,,,,,,,,,,,568,82,poldrack-categorize,108,221948,0.0-108.0,5dc6bfec-8596-4d43-a89e-b5c8365ae1c3,,1500,250,stim,,"<div class = centerbox><div class = stroop-stim style = ""color:red"">RED</div></div>","66,71,82",1500,test,TRUE,82,500,congruent,red,red,,,,,-1,-1,poldrack-single-stim,109,222709,0.0-109.0,5dc6bfec-8596-4d43-a89e-b5c8365ae1c3,,500,500,fixation,,<div class = centerbox><div class = fixation>+</div></div>,none,500,test,,,,,,,,,,,730,66,poldrack-categorize,110,225222,0.0-110.0,5dc6bfec-8596-4d43-a89e-b5c8365ae1c3,,1500,250,stim,,"<div class = centerbox><div class = stroop-stim style = ""color:blue"">GREEN</div></div>","66,71,82",1500,test,TRUE,66,500,incongruent,blue,green,,,,,-1,-1,poldrack-single-stim,111,225982,0.0-111.0,5dc6bfec-8596-4d43-a89e-b5c8365ae1c3,,500,500,fixation,,<div class = centerbox><div class = fixation>+</div></div>,none,500,test,,,,,,,,,,,658,82,poldrack-categorize,112,228496,0.0-112.0,5dc6bfec-8596-4d43-a89e-b5c8365ae1c3,,1500,250,stim,,"<div class = centerbox><div class = stroop-stim style = ""color:red"">GREEN</div></div>","66,71,82",1500,test,TRUE,82,500,incongruent,red,green,,,,,-1,-1,poldrack-single-stim,113,229256,0.0-113.0,5dc6bfec-8596-4d43-a89e-b5c8365ae1c3,,500,500,fixation,,<div class = centerbox><div class = fixation>+</div></div>,none,500,test,,,,,,,,,,,1103,71,poldrack-categorize,114,231769,0.0-114.0,5dc6bfec-8596-4d43-a89e-b5c8365ae1c3,,1500,250,stim,,"<div class = centerbox><div class = stroop-stim style = ""color:green"">RED</div></div>","66,71,82",1500,test,TRUE,71,500,incongruent,green,red,,,,,-1,-1,poldrack-single-stim,115,232530,0.0-115.0,5dc6bfec-8596-4d43-a89e-b5c8365ae1c3,,500,500,fixation,,<div class = centerbox><div class = fixation>+</div></div>,none,500,test,,,,,,,,,,,701,66,poldrack-categorize,116,235043,0.0-116.0,5dc6bfec-8596-4d43-a89e-b5c8365ae1c3,,1500,250,stim,,"<div class = centerbox><div class = stroop-stim style = ""color:blue"">GREEN</div></div>","66,71,82",1500,test,TRUE,66,500,incongruent,blue,green,,,,,-1,-1,poldrack-single-stim,117,235804,0.0-117.0,5dc6bfec-8596-4d43-a89e-b5c8365ae1c3,,500,500,fixation,,<div class = centerbox><div class = fixation>+</div></div>,none,500,test,,,,,,,,,,,611,66,poldrack-categorize,118,238317,0.0-118.0,5dc6bfec-8596-4d43-a89e-b5c8365ae1c3,,1500,250,stim,,"<div class = centerbox><div class = stroop-stim style = ""color:blue"">RED</div></div>","66,71,82",1500,test,TRUE,66,500,incongruent,blue,red,,,,,-1,-1,poldrack-single-stim,119,239072,0.0-119.0,5dc6bfec-8596-4d43-a89e-b5c8365ae1c3,,500,500,fixation,,<div class = centerbox><div class = fixation>+</div></div>,none,500,test,,,,,,,,,,,565,66,poldrack-categorize,120,241585,0.0-120.0,5dc6bfec-8596-4d43-a89e-b5c8365ae1c3,,1500,250,stim,,"<div class = centerbox><div class = stroop-stim style = ""color:blue"">BLUE</div></div>","66,71,82",1500,test,TRUE,66,500,congruent,blue,blue,,,,,-1,-1,poldrack-single-stim,121,242346,0.0-121.0,5dc6bfec-8596-4d43-a89e-b5c8365ae1c3,,500,500,fixation,,<div class = centerbox><div class = fixation>+</div></div>,none,500,test,,,,,,,,,,,444,66,poldrack-categorize,122,244859,0.0-122.0,5dc6bfec-8596-4d43-a89e-b5c8365ae1c3,,1500,250,stim,,"<div class = centerbox><div class = stroop-stim style = ""color:blue"">RED</div></div>","66,71,82",1500,test,TRUE,66,500,incongruent,blue,red,,,,,-1,-1,poldrack-single-stim,123,245619,0.0-123.0,5dc6bfec-8596-4d43-a89e-b5c8365ae1c3,,500,500,fixation,,<div class = centerbox><div class = fixation>+</div></div>,none,500,test,,,,,,,,,,,529,71,poldrack-categorize,124,248133,0.0-124.0,5dc6bfec-8596-4d43-a89e-b5c8365ae1c3,,1500,250,stim,,"<div class = centerbox><div class = stroop-stim style = ""color:green"">RED</div></div>","66,71,82",1500,test,TRUE,71,500,incongruent,green,red,,,,,-1,-1,poldrack-single-stim,125,248887,0.0-125.0,5dc6bfec-8596-4d43-a89e-b5c8365ae1c3,,500,500,fixation,,<div class = centerbox><div class = fixation>+</div></div>,none,500,test,,,,,,,,,,,453,71,poldrack-categorize,126,251401,0.0-126.0,5dc6bfec-8596-4d43-a89e-b5c8365ae1c3,,1500,250,stim,,"<div class = centerbox><div class = stroop-stim style = ""color:green"">RED</div></div>","66,71,82",1500,test,TRUE,71,500,incongruent,green,red,,,,,-1,-1,poldrack-single-stim,127,252161,0.0-127.0,5dc6bfec-8596-4d43-a89e-b5c8365ae1c3,,500,500,fixation,,<div class = centerbox><div class = fixation>+</div></div>,none,500,test,,,,,,,,,,,533,66,poldrack-categorize,128,254675,0.0-128.0,5dc6bfec-8596-4d43-a89e-b5c8365ae1c3,,1500,250,stim,,"<div class = centerbox><div class = stroop-stim style = ""color:blue"">RED</div></div>","66,71,82",1500,test,TRUE,66,500,incongruent,blue,red,,,,,-1,-1,poldrack-single-stim,129,255435,0.0-129.0,5dc6bfec-8596-4d43-a89e-b5c8365ae1c3,,500,500,fixation,,<div class = centerbox><div class = fixation>+</div></div>,none,500,test,,,,,,,,,,,618,66,poldrack-categorize,130,257948,0.0-130.0,5dc6bfec-8596-4d43-a89e-b5c8365ae1c3,,1500,250,stim,,"<div class = centerbox><div class = stroop-stim style = ""color:blue"">BLUE</div></div>","66,71,82",1500,test,TRUE,66,500,congruent,blue,blue,,,,,-1,-1,poldrack-single-stim,131,258709,0.0-131.0,5dc6bfec-8596-4d43-a89e-b5c8365ae1c3,,500,500,fixation,,<div class = centerbox><div class = fixation>+</div></div>,none,500,test,,,,,,,,,,,822,82,poldrack-categorize,132,261224,0.0-132.0,5dc6bfec-8596-4d43-a89e-b5c8365ae1c3,,1500,250,stim,,"<div class = centerbox><div class = stroop-stim style = ""color:red"">GREEN</div></div>","66,71,82",1500,test,TRUE,82,500,incongruent,red,green,,,,,-1,-1,poldrack-single-stim,133,261983,0.0-133.0,5dc6bfec-8596-4d43-a89e-b5c8365ae1c3,,500,500,fixation,,<div class = centerbox><div class = fixation>+</div></div>,none,500,test,,,,,,,,,,,628,66,poldrack-categorize,134,264494,0.0-134.0,5dc6bfec-8596-4d43-a89e-b5c8365ae1c3,,1500,250,stim,,"<div class = centerbox><div class = stroop-stim style = ""color:blue"">BLUE</div></div>","66,71,82",1500,test,TRUE,66,500,congruent,blue,blue,,,,,-1,-1,poldrack-single-stim,135,265251,0.0-135.0,5dc6bfec-8596-4d43-a89e-b5c8365ae1c3,,500,500,fixation,,<div class = centerbox><div class = fixation>+</div></div>,none,500,test,,,,,,,,,,,529,71,poldrack-categorize,136,267764,0.0-136.0,5dc6bfec-8596-4d43-a89e-b5c8365ae1c3,,1500,250,stim,,"<div class = centerbox><div class = stroop-stim style = ""color:green"">BLUE</div></div>","66,71,82",1500,test,TRUE,71,500,incongruent,green,blue,,,,,-1,-1,poldrack-single-stim,137,268524,0.0-137.0,5dc6bfec-8596-4d43-a89e-b5c8365ae1c3,,500,500,fixation,,<div class = centerbox><div class = fixation>+</div></div>,none,500,test,,,,,,,,,,,591,71,poldrack-categorize,138,271038,0.0-138.0,5dc6bfec-8596-4d43-a89e-b5c8365ae1c3,,1500,250,stim,,"<div class = centerbox><div class = stroop-stim style = ""color:green"">BLUE</div></div>","66,71,82",1500,test,TRUE,71,500,incongruent,green,blue,,,,,-1,-1,poldrack-single-stim,139,271798,0.0-139.0,5dc6bfec-8596-4d43-a89e-b5c8365ae1c3,,500,500,fixation,,<div class = centerbox><div class = fixation>+</div></div>,none,500,test,,,,,,,,,,,759,71,poldrack-categorize,140,274308,0.0-140.0,5dc6bfec-8596-4d43-a89e-b5c8365ae1c3,,1500,250,stim,,"<div class = centerbox><div class = stroop-stim style = ""color:green"">BLUE</div></div>","66,71,82",1500,test,TRUE,71,500,incongruent,green,blue,,,,,-1,-1,poldrack-single-stim,141,275066,0.0-141.0,5dc6bfec-8596-4d43-a89e-b5c8365ae1c3,,500,500,fixation,,<div class = centerbox><div class = fixation>+</div></div>,none,500,test,,,,,,,,,,,592,66,poldrack-categorize,142,277580,0.0-142.0,5dc6bfec-8596-4d43-a89e-b5c8365ae1c3,,1500,250,stim,,"<div class = centerbox><div class = stroop-stim style = ""color:blue"">BLUE</div></div>","66,71,82",1500,test,TRUE,66,500,congruent,blue,blue,,,,,-1,-1,poldrack-single-stim,143,278340,0.0-143.0,5dc6bfec-8596-4d43-a89e-b5c8365ae1c3,,500,500,fixation,,<div class = centerbox><div class = fixation>+</div></div>,none,500,test,,,,,,,,,,,608,82,poldrack-categorize,144,280853,0.0-144.0,5dc6bfec-8596-4d43-a89e-b5c8365ae1c3,,1500,250,stim,,"<div class = centerbox><div class = stroop-stim style = ""color:red"">GREEN</div></div>","66,71,82",1500,test,TRUE,82,500,incongruent,red,green,,,,,-1,-1,poldrack-single-stim,145,281614,0.0-145.0,5dc6bfec-8596-4d43-a89e-b5c8365ae1c3,,500,500,fixation,,<div class = centerbox><div class = fixation>+</div></div>,none,500,test,,,,,,,,,,,566,82,poldrack-categorize,146,284127,0.0-146.0,5dc6bfec-8596-4d43-a89e-b5c8365ae1c3,,1500,250,stim,,"<div class = centerbox><div class = stroop-stim style = ""color:red"">RED</div></div>","66,71,82",1500,test,TRUE,82,500,congruent,red,red,,,,,-1,-1,poldrack-single-stim,147,284888,0.0-147.0,5dc6bfec-8596-4d43-a89e-b5c8365ae1c3,,500,500,fixation,,<div class = centerbox><div class = fixation>+</div></div>,none,500,test,,,,,,,,,,,490,82,poldrack-categorize,148,287401,0.0-148.0,5dc6bfec-8596-4d43-a89e-b5c8365ae1c3,,1500,250,stim,,"<div class = centerbox><div class = stroop-stim style = ""color:red"">RED</div></div>","66,71,82",1500,test,TRUE,82,500,congruent,red,red,,,,,-1,-1,poldrack-single-stim,149,288162,0.0-149.0,5dc6bfec-8596-4d43-a89e-b5c8365ae1c3,,500,500,fixation,,<div class = centerbox><div class = fixation>+</div></div>,none,500,test,,,,,,,,,,,616,82,poldrack-categorize,150,290675,0.0-150.0,5dc6bfec-8596-4d43-a89e-b5c8365ae1c3,,1500,250,stim,,"<div class = centerbox><div class = stroop-stim style = ""color:red"">GREEN</div></div>","66,71,82",1500,test,TRUE,82,500,incongruent,red,green,,,,,-1,-1,poldrack-single-stim,151,291435,0.0-151.0,5dc6bfec-8596-4d43-a89e-b5c8365ae1c3,,500,500,fixation,,<div class = centerbox><div class = fixation>+</div></div>,none,500,test,,,,,,,,,,,432,82,poldrack-categorize,152,293949,0.0-152.0,5dc6bfec-8596-4d43-a89e-b5c8365ae1c3,,1500,250,stim,,"<div class = centerbox><div class = stroop-stim style = ""color:red"">RED</div></div>","66,71,82",1500,test,TRUE,82,500,congruent,red,red,,,,,-1,-1,poldrack-single-stim,153,294709,0.0-153.0,5dc6bfec-8596-4d43-a89e-b5c8365ae1c3,,500,500,fixation,,<div class = centerbox><div class = fixation>+</div></div>,none,500,test,,,,,,,,,,,549,71,poldrack-categorize,154,297222,0.0-154.0,5dc6bfec-8596-4d43-a89e-b5c8365ae1c3,,1500,250,stim,,"<div class = centerbox><div class = stroop-stim style = ""color:green"">GREEN</div></div>","66,71,82",1500,test,TRUE,71,500,congruent,green,green,,,,,-1,-1,poldrack-single-stim,155,297983,0.0-155.0,5dc6bfec-8596-4d43-a89e-b5c8365ae1c3,,500,500,fixation,,<div class = centerbox><div class = fixation>+</div></div>,none,500,test,,,,,,,,,,,668,82,poldrack-categorize,156,300495,0.0-156.0,5dc6bfec-8596-4d43-a89e-b5c8365ae1c3,,1500,250,stim,,"<div class = centerbox><div class = stroop-stim style = ""color:red"">RED</div></div>","66,71,82",1500,test,TRUE,82,500,congruent,red,red,,,,,-1,-1,poldrack-single-stim,157,301251,0.0-157.0,5dc6bfec-8596-4d43-a89e-b5c8365ae1c3,,500,500,fixation,,<div class = centerbox><div class = fixation>+</div></div>,none,500,test,,,,,,,,,,,894,66,poldrack-categorize,158,303766,0.0-158.0,5dc6bfec-8596-4d43-a89e-b5c8365ae1c3,,1500,250,stim,,"<div class = centerbox><div class = stroop-stim style = ""color:blue"">BLUE</div></div>","66,71,82",1500,test,TRUE,66,500,congruent,blue,blue,,,,,-1,-1,poldrack-single-stim,159,304525,0.0-159.0,5dc6bfec-8596-4d43-a89e-b5c8365ae1c3,,500,500,fixation,,<div class = centerbox><div class = fixation>+</div></div>,none,500,test,,,,,,,,,,,531,66,poldrack-categorize,160,307038,0.0-160.0,5dc6bfec-8596-4d43-a89e-b5c8365ae1c3,,1500,250,stim,,"<div class = centerbox><div class = stroop-stim style = ""color:blue"">GREEN</div></div>","66,71,82",1500,test,TRUE,66,500,incongruent,blue,green,,,,,-1,-1,poldrack-single-stim,161,307799,0.0-161.0,5dc6bfec-8596-4d43-a89e-b5c8365ae1c3,,500,500,fixation,,<div class = centerbox><div class = fixation>+</div></div>,none,500,test,,,,,,,,,,,484,71,poldrack-categorize,162,310312,0.0-162.0,5dc6bfec-8596-4d43-a89e-b5c8365ae1c3,,1500,250,stim,,"<div class = centerbox><div class = stroop-stim style = ""color:green"">GREEN</div></div>","66,71,82",1500,test,TRUE,71,500,congruent,green,green,,,,,-1,-1,poldrack-single-stim,163,311067,0.0-163.0,5dc6bfec-8596-4d43-a89e-b5c8365ae1c3,,500,500,fixation,,<div class = centerbox><div class = fixation>+</div></div>,none,500,test,,,,,,,,,,,422,71,poldrack-categorize,164,313580,0.0-164.0,5dc6bfec-8596-4d43-a89e-b5c8365ae1c3,,1500,250,stim,,"<div class = centerbox><div class = stroop-stim style = ""color:green"">GREEN</div></div>","66,71,82",1500,test,TRUE,71,500,congruent,green,green,,,,,-1,-1,poldrack-single-stim,165,314341,0.0-165.0,5dc6bfec-8596-4d43-a89e-b5c8365ae1c3,,500,500,fixation,,<div class = centerbox><div class = fixation>+</div></div>,none,500,test,,,,,,,,,,,654,82,poldrack-categorize,166,316854,0.0-166.0,5dc6bfec-8596-4d43-a89e-b5c8365ae1c3,,1500,250,stim,,"<div class = centerbox><div class = stroop-stim style = ""color:red"">BLUE</div></div>","66,71,82",1500,test,TRUE,82,500,incongruent,red,blue,,,,,-1,-1,poldrack-single-stim,167,317610,0.0-167.0,5dc6bfec-8596-4d43-a89e-b5c8365ae1c3,,500,500,fixation,,<div class = centerbox><div class = fixation>+</div></div>,none,500,test,,,,,,,,,,,589,71,poldrack-categorize,168,320122,0.0-168.0,5dc6bfec-8596-4d43-a89e-b5c8365ae1c3,,1500,250,stim,,"<div class = centerbox><div class = stroop-stim style = ""color:green"">GREEN</div></div>","66,71,82",1500,test,TRUE,71,500,congruent,green,green,,,,,-1,-1,poldrack-single-stim,169,320882,0.0-169.0,5dc6bfec-8596-4d43-a89e-b5c8365ae1c3,,500,500,fixation,,<div class = centerbox><div class = fixation>+</div></div>,none,500,test,,,,,,,,,,,504,71,poldrack-categorize,170,323396,0.0-170.0,5dc6bfec-8596-4d43-a89e-b5c8365ae1c3,,1500,250,stim,,"<div class = centerbox><div class = stroop-stim style = ""color:green"">GREEN</div></div>","66,71,82",1500,test,TRUE,71,500,congruent,green,green,,,,,-1,-1,poldrack-single-stim,171,324156,0.0-171.0,5dc6bfec-8596-4d43-a89e-b5c8365ae1c3,,500,500,fixation,,<div class = centerbox><div class = fixation>+</div></div>,none,500,test,,,,,,,,,,,485,71,poldrack-categorize,172,326669,0.0-172.0,5dc6bfec-8596-4d43-a89e-b5c8365ae1c3,,1500,250,stim,,"<div class = centerbox><div class = stroop-stim style = ""color:green"">GREEN</div></div>","66,71,82",1500,test,TRUE,71,500,congruent,green,green,,,,,-1,-1,poldrack-single-stim,173,327430,0.0-173.0,5dc6bfec-8596-4d43-a89e-b5c8365ae1c3,,500,500,fixation,,<div class = centerbox><div class = fixation>+</div></div>,none,500,test,,,,,,,,,,,547,82,poldrack-categorize,174,329943,0.0-174.0,5dc6bfec-8596-4d43-a89e-b5c8365ae1c3,,1500,250,stim,,"<div class = centerbox><div class = stroop-stim style = ""color:red"">BLUE</div></div>","66,71,82",1500,test,TRUE,82,500,incongruent,red,blue,,,,,-1,-1,poldrack-single-stim,175,330704,0.0-175.0,5dc6bfec-8596-4d43-a89e-b5c8365ae1c3,,500,500,fixation,,<div class = centerbox><div class = fixation>+</div></div>,none,500,test,,,,,,,,,,,873,71,poldrack-categorize,176,333217,0.0-176.0,5dc6bfec-8596-4d43-a89e-b5c8365ae1c3,,1500,250,stim,,"<div class = centerbox><div class = stroop-stim style = ""color:green"">GREEN</div></div>","66,71,82",1500,test,TRUE,71,500,congruent,green,green,,,,,-1,-1,poldrack-single-stim,177,333978,0.0-177.0,5dc6bfec-8596-4d43-a89e-b5c8365ae1c3,,500,500,fixation,,<div class = centerbox><div class = fixation>+</div></div>,none,500,test,,,,,,,,,,,632,82,poldrack-categorize,178,336491,0.0-178.0,5dc6bfec-8596-4d43-a89e-b5c8365ae1c3,,1500,250,stim,,"<div class = centerbox><div class = stroop-stim style = ""color:red"">RED</div></div>","66,71,82",1500,test,TRUE,82,500,congruent,red,red,,,,,-1,-1,poldrack-single-stim,179,337251,0.0-179.0,5dc6bfec-8596-4d43-a89e-b5c8365ae1c3,,500,500,fixation,,<div class = centerbox><div class = fixation>+</div></div>,none,500,test,,,,,,,,,,,452,82,poldrack-categorize,180,339765,0.0-180.0,5dc6bfec-8596-4d43-a89e-b5c8365ae1c3,,1500,250,stim,,"<div class = centerbox><div class = stroop-stim style = ""color:red"">BLUE</div></div>","66,71,82",1500,test,TRUE,82,500,incongruent,red,blue,,,,,-1,-1,poldrack-single-stim,181,340525,0.0-181.0,5dc6bfec-8596-4d43-a89e-b5c8365ae1c3,,500,500,fixation,,<div class = centerbox><div class = fixation>+</div></div>,none,500,test,,,,,,,,,,,603,82,poldrack-categorize,182,343038,0.0-182.0,5dc6bfec-8596-4d43-a89e-b5c8365ae1c3,,1500,250,stim,,"<div class = centerbox><div class = stroop-stim style = ""color:red"">RED</div></div>","66,71,82",1500,test,TRUE,82,500,congruent,red,red,,,,,-1,-1,poldrack-single-stim,183,343799,0.0-183.0,5dc6bfec-8596-4d43-a89e-b5c8365ae1c3,,500,500,fixation,,<div class = centerbox><div class = fixation>+</div></div>,none,500,test,,,,,,,,,,,624,71,poldrack-categorize,184,346310,0.0-184.0,5dc6bfec-8596-4d43-a89e-b5c8365ae1c3,,1500,250,stim,,"<div class = centerbox><div class = stroop-stim style = ""color:green"">RED</div></div>","66,71,82",1500,test,TRUE,71,500,incongruent,green,red,,,,,-1,-1,poldrack-single-stim,185,347067,0.0-185.0,5dc6bfec-8596-4d43-a89e-b5c8365ae1c3,,500,500,fixation,,<div class = centerbox><div class = fixation>+</div></div>,none,500,test,,,,,,,,,,,955,66,poldrack-categorize,186,349580,0.0-186.0,5dc6bfec-8596-4d43-a89e-b5c8365ae1c3,,1500,250,stim,,"<div class = centerbox><div class = stroop-stim style = ""color:blue"">BLUE</div></div>","66,71,82",1500,test,TRUE,66,500,congruent,blue,blue,,,,,-1,-1,poldrack-single-stim,187,350341,0.0-187.0,5dc6bfec-8596-4d43-a89e-b5c8365ae1c3,,500,500,fixation,,<div class = centerbox><div class = fixation>+</div></div>,none,500,test,,,,,,,,,,,538,66,poldrack-categorize,188,352854,0.0-188.0,5dc6bfec-8596-4d43-a89e-b5c8365ae1c3,,1500,250,stim,,"<div class = centerbox><div class = stroop-stim style = ""color:blue"">BLUE</div></div>","66,71,82",1500,test,TRUE,66,500,congruent,blue,blue,,,,,-1,-1,poldrack-single-stim,189,353615,0.0-189.0,5dc6bfec-8596-4d43-a89e-b5c8365ae1c3,,500,500,fixation,,<div class = centerbox><div class = fixation>+</div></div>,none,500,test,,,,,,,,,,,545,82,poldrack-categorize,190,356128,0.0-190.0,5dc6bfec-8596-4d43-a89e-b5c8365ae1c3,,1500,250,stim,,"<div class = centerbox><div class = stroop-stim style = ""color:red"">RED</div></div>","66,71,82",1500,test,TRUE,82,500,congruent,red,red,,,,,-1,-1,poldrack-single-stim,191,356888,0.0-191.0,5dc6bfec-8596-4d43-a89e-b5c8365ae1c3,,500,500,fixation,,<div class = centerbox><div class = fixation>+</div></div>,none,500,test,,,,,,,,,,,720,66,poldrack-categorize,192,359402,0.0-192.0,5dc6bfec-8596-4d43-a89e-b5c8365ae1c3,,1500,250,stim,,"<div class = centerbox><div class = stroop-stim style = ""color:blue"">RED</div></div>","66,71,82",1500,test,TRUE,66,500,incongruent,blue,red,,,,,-1,-1,poldrack-single-stim,193,360159,0.0-193.0,5dc6bfec-8596-4d43-a89e-b5c8365ae1c3,,500,500,fixation,,<div class = centerbox><div class = fixation>+</div></div>,none,500,test,,,,,,,,,,,542,71,poldrack-categorize,194,362670,0.0-194.0,5dc6bfec-8596-4d43-a89e-b5c8365ae1c3,,1500,250,stim,,"<div class = centerbox><div class = stroop-stim style = ""color:green"">GREEN</div></div>","66,71,82",1500,test,TRUE,71,500,congruent,green,green,,,,,-1,-1,poldrack-single-stim,195,363430,0.0-195.0,5dc6bfec-8596-4d43-a89e-b5c8365ae1c3,,500,500,fixation,,<div class = centerbox><div class = fixation>+</div></div>,none,500,test,,,,,,,,,,,424,71,poldrack-categorize,196,365943,0.0-196.0,5dc6bfec-8596-4d43-a89e-b5c8365ae1c3,,1500,250,stim,,"<div class = centerbox><div class = stroop-stim style = ""color:green"">GREEN</div></div>","66,71,82",1500,test,TRUE,71,500,congruent,green,green,,,,,-1,-1,poldrack-single-stim,197,366698,0.0-197.0,5dc6bfec-8596-4d43-a89e-b5c8365ae1c3,,500,500,fixation,,<div class = centerbox><div class = fixation>+</div></div>,none,500,test,,,,,,,,,,,691,71,poldrack-categorize,198,369206,0.0-198.0,5dc6bfec-8596-4d43-a89e-b5c8365ae1c3,,1500,250,stim,,"<div class = centerbox><div class = stroop-stim style = ""color:green"">RED</div></div>","66,71,82",1500,test,TRUE,71,500,incongruent,green,red,,,,,-1,-1,poldrack-single-stim,199,369963,0.0-199.0,5dc6bfec-8596-4d43-a89e-b5c8365ae1c3,,500,500,fixation,,<div class = centerbox><div class = fixation>+</div></div>,none,500,test,,,,,,,,,,,613,82,poldrack-categorize,200,372474,0.0-200.0,5dc6bfec-8596-4d43-a89e-b5c8365ae1c3,,1500,250,stim,,"<div class = centerbox><div class = stroop-stim style = ""color:red"">GREEN</div></div>","66,71,82",1500,test,TRUE,82,500,incongruent,red,green,,,,,-1,-1,poldrack-single-stim,201,373234,0.0-201.0,5dc6bfec-8596-4d43-a89e-b5c8365ae1c3,,500,500,fixation,,<div class = centerbox><div class = fixation>+</div></div>,none,500,test,,,,,,,,,,,548,66,poldrack-categorize,202,375744,0.0-202.0,5dc6bfec-8596-4d43-a89e-b5c8365ae1c3,,1500,250,stim,,"<div class = centerbox><div class = stroop-stim style = ""color:blue"">BLUE</div></div>","66,71,82",1500,test,TRUE,66,500,congruent,blue,blue,,,,,-1,-1,poldrack-single-stim,203,376502,0.0-203.0,5dc6bfec-8596-4d43-a89e-b5c8365ae1c3,,500,500,fixation,,<div class = centerbox><div class = fixation>+</div></div>,none,500,test,,,,,,,,,,,766,66,poldrack-categorize,204,379015,0.0-204.0,5dc6bfec-8596-4d43-a89e-b5c8365ae1c3,,1500,250,stim,,"<div class = centerbox><div class = stroop-stim style = ""color:blue"">BLUE</div></div>","66,71,82",1500,test,TRUE,66,500,congruent,blue,blue,,,,,-1,-1,poldrack-single-stim,205,379776,0.0-205.0,5dc6bfec-8596-4d43-a89e-b5c8365ae1c3,,500,500,fixation,,<div class = centerbox><div class = fixation>+</div></div>,none,500,test,,,,,,,,,,,644,82,poldrack-categorize,206,382289,0.0-206.0,5dc6bfec-8596-4d43-a89e-b5c8365ae1c3,,1500,250,stim,,"<div class = centerbox><div class = stroop-stim style = ""color:red"">BLUE</div></div>","66,71,82",1500,test,TRUE,82,500,incongruent,red,blue,,,,,-1,-1,poldrack-single-stim,207,383050,0.0-207.0,5dc6bfec-8596-4d43-a89e-b5c8365ae1c3,,500,500,fixation,,<div class = centerbox><div class = fixation>+</div></div>,none,500,test,,,,,,,,,,,443,82,poldrack-categorize,208,385563,0.0-208.0,5dc6bfec-8596-4d43-a89e-b5c8365ae1c3,,1500,250,stim,,"<div class = centerbox><div class = stroop-stim style = ""color:red"">RED</div></div>","66,71,82",1500,test,TRUE,82,500,congruent,red,red,,,,,-1,-1,poldrack-single-stim,209,386324,0.0-209.0,5dc6bfec-8596-4d43-a89e-b5c8365ae1c3,,500,500,fixation,,<div class = centerbox><div class = fixation>+</div></div>,none,500,test,,,,,,,,,,,816,66,poldrack-categorize,210,388831,0.0-210.0,5dc6bfec-8596-4d43-a89e-b5c8365ae1c3,,1500,250,stim,,"<div class = centerbox><div class = stroop-stim style = ""color:blue"">RED</div></div>","66,71,82",1500,test,TRUE,66,500,incongruent,blue,red,,,,,-1,-1,poldrack-single-stim,211,389592,0.0-211.0,5dc6bfec-8596-4d43-a89e-b5c8365ae1c3,,500,500,fixation,,<div class = centerbox><div class = fixation>+</div></div>,none,500,test,,,,,,,,,,,683,66,poldrack-categorize,212,392105,0.0-212.0,5dc6bfec-8596-4d43-a89e-b5c8365ae1c3,,1500,250,stim,,"<div class = centerbox><div class = stroop-stim style = ""color:blue"">GREEN</div></div>","66,71,82",1500,test,TRUE,66,500,incongruent,blue,green,,,,,-1,-1,poldrack-single-stim,213,392866,0.0-213.0,5dc6bfec-8596-4d43-a89e-b5c8365ae1c3,,500,500,fixation,,<div class = centerbox><div class = fixation>+</div></div>,none,500,test,,,,,,,,,,,548,66,poldrack-categorize,214,395379,0.0-214.0,5dc6bfec-8596-4d43-a89e-b5c8365ae1c3,,1500,250,stim,,"<div class = centerbox><div class = stroop-stim style = ""color:blue"">BLUE</div></div>","66,71,82",1500,test,TRUE,66,500,congruent,blue,blue,,,,,-1,-1,poldrack-single-stim,215,396135,0.0-215.0,5dc6bfec-8596-4d43-a89e-b5c8365ae1c3,,500,500,fixation,,<div class = centerbox><div class = fixation>+</div></div>,none,500,test,,,,,,,,,,,467,66,poldrack-categorize,216,398647,0.0-216.0,5dc6bfec-8596-4d43-a89e-b5c8365ae1c3,,1500,250,stim,,"<div class = centerbox><div class = stroop-stim style = ""color:blue"">BLUE</div></div>","66,71,82",1500,test,TRUE,66,500,congruent,blue,blue,,,,,-1,-1,poldrack-single-stim,217,399407,0.0-217.0,5dc6bfec-8596-4d43-a89e-b5c8365ae1c3,,500,500,fixation,,<div class = centerbox><div class = fixation>+</div></div>,none,500,test,,,,,,,,,,,1124,82,poldrack-categorize,218,401920,0.0-218.0,5dc6bfec-8596-4d43-a89e-b5c8365ae1c3,,1500,250,stim,,"<div class = centerbox><div class = stroop-stim style = ""color:red"">RED</div></div>","66,71,82",1500,test,TRUE,82,500,congruent,red,red,,,,,-1,-1,poldrack-single-stim,219,402682,0.0-219.0,5dc6bfec-8596-4d43-a89e-b5c8365ae1c3,,500,500,fixation,,<div class = centerbox><div class = fixation>+</div></div>,none,500,test,,,,,,,,,,,628,66,poldrack-categorize,220,405194,0.0-220.0,5dc6bfec-8596-4d43-a89e-b5c8365ae1c3,,1500,250,stim,,"<div class = centerbox><div class = stroop-stim style = ""color:blue"">RED</div></div>","66,71,82",1500,test,TRUE,66,500,incongruent,blue,red,,,,,-1,-1,poldrack-single-stim,221,405955,0.0-221.0,5dc6bfec-8596-4d43-a89e-b5c8365ae1c3,,500,500,fixation,,<div class = centerbox><div class = fixation>+</div></div>,none,500,test,,,,,,,,,,,1154,82,poldrack-categorize,222,408463,0.0-222.0,5dc6bfec-8596-4d43-a89e-b5c8365ae1c3,,1500,250,stim,,"<div class = centerbox><div class = stroop-stim style = ""color:red"">RED</div></div>","66,71,82",1500,test,TRUE,82,500,congruent,red,red,,,,,-1,-1,poldrack-single-stim,223,409223,0.0-223.0,5dc6bfec-8596-4d43-a89e-b5c8365ae1c3,,500,500,fixation,,<div class = centerbox><div class = fixation>+</div></div>,none,500,test,,,,,,,,,,,868,71,poldrack-categorize,224,411736,0.0-224.0,5dc6bfec-8596-4d43-a89e-b5c8365ae1c3,,1500,250,stim,,"<div class = centerbox><div class = stroop-stim style = ""color:green"">BLUE</div></div>","66,71,82",1500,test,TRUE,71,500,incongruent,green,blue,,,,,-1,-1,poldrack-single-stim,225,412495,0.0-225.0,5dc6bfec-8596-4d43-a89e-b5c8365ae1c3,,500,500,fixation,,<div class = centerbox><div class = fixation>+</div></div>,none,500,test,,,,,,,,,,,643,82,poldrack-categorize,226,415010,0.0-226.0,5dc6bfec-8596-4d43-a89e-b5c8365ae1c3,,1500,250,stim,,"<div class = centerbox><div class = stroop-stim style = ""color:red"">RED</div></div>","66,71,82",1500,test,TRUE,82,500,congruent,red,red,,,,,-1,-1,poldrack-single-stim,227,415771,0.0-227.0,5dc6bfec-8596-4d43-a89e-b5c8365ae1c3,,500,500,fixation,,<div class = centerbox><div class = fixation>+</div></div>,none,500,test,,,,,,,,,,,569,71,poldrack-categorize,228,418284,0.0-228.0,5dc6bfec-8596-4d43-a89e-b5c8365ae1c3,,1500,250,stim,,"<div class = centerbox><div class = stroop-stim style = ""color:green"">GREEN</div></div>","66,71,82",1500,test,TRUE,71,500,congruent,green,green,,,,,-1,-1,poldrack-single-stim,229,419044,0.0-229.0,5dc6bfec-8596-4d43-a89e-b5c8365ae1c3,,500,500,fixation,,<div class = centerbox><div class = fixation>+</div></div>,none,500,test,,,,,,,,,,,696,71,poldrack-categorize,230,421558,0.0-230.0,5dc6bfec-8596-4d43-a89e-b5c8365ae1c3,,1500,250,stim,,"<div class = centerbox><div class = stroop-stim style = ""color:green"">BLUE</div></div>","66,71,82",1500,test,TRUE,71,500,incongruent,green,blue,,,,,-1,-1,poldrack-single-stim,231,422316,0.0-231.0,5dc6bfec-8596-4d43-a89e-b5c8365ae1c3,,500,500,fixation,,<div class = centerbox><div class = fixation>+</div></div>,none,500,test,,,,,,,,,,,461,71,poldrack-categorize,232,424831,0.0-232.0,5dc6bfec-8596-4d43-a89e-b5c8365ae1c3,,1500,250,stim,,"<div class = centerbox><div class = stroop-stim style = ""color:green"">GREEN</div></div>","66,71,82",1500,test,TRUE,71,500,congruent,green,green,,,,,-1,-1,poldrack-single-stim,233,425592,0.0-233.0,5dc6bfec-8596-4d43-a89e-b5c8365ae1c3,,500,500,fixation,,<div class = centerbox><div class = fixation>+</div></div>,none,500,test,,,,,,,,,,,611,66,poldrack-categorize,234,428105,0.0-234.0,5dc6bfec-8596-4d43-a89e-b5c8365ae1c3,,1500,250,stim,,"<div class = centerbox><div class = stroop-stim style = ""color:blue"">GREEN</div></div>","66,71,82",1500,test,TRUE,66,500,incongruent,blue,green,,,,,-1,-1,poldrack-single-stim,235,428866,0.0-235.0,5dc6bfec-8596-4d43-a89e-b5c8365ae1c3,,500,500,fixation,,<div class = centerbox><div class = fixation>+</div></div>,none,500,test,,,,,,,,,,,824,82,poldrack-categorize,236,431379,0.0-236.0,5dc6bfec-8596-4d43-a89e-b5c8365ae1c3,,1500,250,stim,,"<div class = centerbox><div class = stroop-stim style = ""color:red"">GREEN</div></div>","66,71,82",1500,test,TRUE,82,500,incongruent,red,green,,,,,-1,-1,poldrack-single-stim,237,432140,0.0-237.0,5dc6bfec-8596-4d43-a89e-b5c8365ae1c3,,500,500,fixation,,<div class = centerbox><div class = fixation>+</div></div>,none,500,test,,,,,,,,,,,495,82,poldrack-categorize,238,434653,0.0-238.0,5dc6bfec-8596-4d43-a89e-b5c8365ae1c3,,1500,250,stim,,"<div class = centerbox><div class = stroop-stim style = ""color:red"">RED</div></div>","66,71,82",1500,test,TRUE,82,500,congruent,red,red,,,,,-1,-1,poldrack-single-stim,239,435414,0.0-239.0,5dc6bfec-8596-4d43-a89e-b5c8365ae1c3,,500,500,fixation,,<div class = centerbox><div class = fixation>+</div></div>,none,500,test,,,,,,,,,,,478,82,poldrack-categorize,240,437927,0.0-240.0,5dc6bfec-8596-4d43-a89e-b5c8365ae1c3,,1500,250,stim,,"<div class = centerbox><div class = stroop-stim style = ""color:red"">BLUE</div></div>","66,71,82",1500,test,TRUE,82,500,incongruent,red,blue,,,,,-1,-1,poldrack-single-stim,241,438687,0.0-241.0,5dc6bfec-8596-4d43-a89e-b5c8365ae1c3,,500,500,fixation,,<div class = centerbox><div class = fixation>+</div></div>,none,500,test,,,,,,,,,,,675,71,poldrack-categorize,242,441200,0.0-242.0,5dc6bfec-8596-4d43-a89e-b5c8365ae1c3,,1500,250,stim,,"<div class = centerbox><div class = stroop-stim style = ""color:green"">GREEN</div></div>","66,71,82",1500,test,TRUE,71,500,congruent,green,green,,,,,-1,-1,poldrack-single-stim,243,441955,0.0-243.0,5dc6bfec-8596-4d43-a89e-b5c8365ae1c3,,500,500,fixation,,<div class = centerbox><div class = fixation>+</div></div>,none,500,test,,,,,,,,,,,629,71,poldrack-categorize,244,444468,0.0-244.0,5dc6bfec-8596-4d43-a89e-b5c8365ae1c3,,1500,250,stim,,"<div class = centerbox><div class = stroop-stim style = ""color:green"">BLUE</div></div>","66,71,82",1500,test,TRUE,71,500,incongruent,green,blue,,,,,73500,,survey-text,245,518230,0.0-246.0,5dc6bfec-8596-4d43-a89e-b5c8365ae1c3,,,,post task questions,,,,,,,,,,,,"{""Q0"":""I was asked to press the letter 'r' if the ink color of the word was red. If the ink color was green, I was asked to press the letter 'g', and 'b' for the ink color blue. "",""Q1"":""""}",,,,1692,13,poldrack-text,246,520925,0.0-247.0,5dc6bfec-8596-4d43-a89e-b5c8365ae1c3,<div class = centerbox><p class = center-block-text>Thanks for completing this task!</p><p class = center-block-text>Press <strong>enter</strong> to continue.</p></div>,1692,0,end,,,,,,,,,,,,,stroop,TRUE,,2484,13,poldrack-text,247,523444,0.0-248.0-0.0,5dc6bfec-8596-4d43-a89e-b5c8365ae1c3,<div class = centerbox><p class = center-block-text>Done with instructions. Press <strong>enter</strong> to continue.</p></div>,2484,0,instruction,,,,,,,,,,,,,,,,