"rt","key_press","trial_type","trial_index","time_elapsed","internal_node_id","subject","text","block_duration","timing_post_trial","trial_id","view_history","stimulus","possible_responses","stim_duration","exp_stage","correct","correct_response","feedback_duration","condition","stim_color","stim_word","responses","exp_id","credit_var"
"1615","13","text","0","1617","0.0-0.0","b661b187-4c18-4162-94c2-d5c7e6075cfa","","","","","","","","","","","","","","","","","",""
"21424","13","poldrack-text","1","24047","0.0-1.0-0.0","b661b187-4c18-4162-94c2-d5c7e6075cfa","<div class = centerbox><p class = center-block-text>Welcome to the experiment. This experiment will take about 8 minutes. Press <strong>enter</strong> to begin.</p></div>","21424","0","instruction","","","","","","","","","","","","","",""
"60846","","poldrack-instructions","2","84894","0.0-1.0-1.0","b661b187-4c18-4162-94c2-d5c7e6075cfa","","","","instruction","[{""page_index"":0,""viewing_time"":60845}]","","","","","","","","","","","","",""
"4608","13","poldrack-text","3","90507","0.0-2.0","b661b187-4c18-4162-94c2-d5c7e6075cfa","<div class = centerbox><p class = block-text>We will start with a few practice trials. Remember, press the key corresponding to the <strong>ink</strong> color of the word: ""r"" for words colored red, ""b"" for words colored blue, and ""g"" for words colored green.</p><p class = block-text>Press <strong>enter</strong> to begin practice.</p></div>","4608","1000","practice_intro","","","","","","","","","","","","","",""
"-1","-1","poldrack-single-stim","4","92017","0.0-3.0","b661b187-4c18-4162-94c2-d5c7e6075cfa","","500","500","fixation","","<div class = centerbox><div class = fixation>+</div></div>","none","500","practice","","","","","","","","",""
"-1","-1","poldrack-categorize","5","94526","0.0-4.0","b661b187-4c18-4162-94c2-d5c7e6075cfa","","1500","250","stim","","<div class = centerbox><div class = stroop-stim style = ""color:red"">RED</div></div>","66,71,82","1500","practice","false","82","500","congruent","red","red","","",""
"-1","-1","poldrack-single-stim","6","95284","0.0-5.0","b661b187-4c18-4162-94c2-d5c7e6075cfa","","500","500","fixation","","<div class = centerbox><div class = fixation>+</div></div>","none","500","practice","","","","","","","","",""
"1069","82","poldrack-categorize","7","97797","0.0-6.0","b661b187-4c18-4162-94c2-d5c7e6075cfa","","1500","250","stim","","<div class = centerbox><div class = stroop-stim style = ""color:red"">GREEN</div></div>","66,71,82","1500","practice","true","82","500","incongruent","red","green","","",""
"-1","-1","poldrack-single-stim","8","98558","0.0-7.0","b661b187-4c18-4162-94c2-d5c7e6075cfa","","500","500","fixation","","<div class = centerbox><div class = fixation>+</div></div>","none","500","practice","","","","","","","","",""
"853","71","poldrack-categorize","9","101071","0.0-8.0","b661b187-4c18-4162-94c2-d5c7e6075cfa","","1500","250","stim","","<div class = centerbox><div class = stroop-stim style = ""color:green"">GREEN</div></div>","66,71,82","1500","practice","true","71","500","congruent","green","green","","",""
"-1","-1","poldrack-single-stim","10","101831","0.0-9.0","b661b187-4c18-4162-94c2-d5c7e6075cfa","","500","500","fixation","","<div class = centerbox><div class = fixation>+</div></div>","none","500","practice","","","","","","","","",""
"1033","82","poldrack-categorize","11","104344","0.0-10.0","b661b187-4c18-4162-94c2-d5c7e6075cfa","","1500","250","stim","","<div class = centerbox><div class = stroop-stim style = ""color:red"">RED</div></div>","66,71,82","1500","practice","true","82","500","congruent","red","red","","",""
"-1","-1","poldrack-single-stim","12","105099","0.0-11.0","b661b187-4c18-4162-94c2-d5c7e6075cfa","","500","500","fixation","","<div class = centerbox><div class = fixation>+</div></div>","none","500","practice","","","","","","","","",""
"901","82","poldrack-categorize","13","107613","0.0-12.0","b661b187-4c18-4162-94c2-d5c7e6075cfa","","1500","250","stim","","<div class = centerbox><div class = stroop-stim style = ""color:red"">BLUE</div></div>","66,71,82","1500","practice","true","82","500","incongruent","red","blue","","",""
"-1","-1","poldrack-single-stim","14","108372","0.0-13.0","b661b187-4c18-4162-94c2-d5c7e6075cfa","","500","500","fixation","","<div class = centerbox><div class = fixation>+</div></div>","none","500","practice","","","","","","","","",""
"-1","-1","poldrack-categorize","15","110886","0.0-14.0","b661b187-4c18-4162-94c2-d5c7e6075cfa","","1500","250","stim","","<div class = centerbox><div class = stroop-stim style = ""color:blue"">GREEN</div></div>","66,71,82","1500","practice","false","66","500","incongruent","blue","green","","",""
"-1","-1","poldrack-single-stim","16","111647","0.0-15.0","b661b187-4c18-4162-94c2-d5c7e6075cfa","","500","500","fixation","","<div class = centerbox><div class = fixation>+</div></div>","none","500","practice","","","","","","","","",""
"1042","71","poldrack-categorize","17","114160","0.0-16.0","b661b187-4c18-4162-94c2-d5c7e6075cfa","","1500","250","stim","","<div class = centerbox><div class = stroop-stim style = ""color:green"">RED</div></div>","66,71,82","1500","practice","true","71","500","incongruent","green","red","","",""
"-1","-1","poldrack-single-stim","18","114915","0.0-17.0","b661b187-4c18-4162-94c2-d5c7e6075cfa","","500","500","fixation","","<div class = centerbox><div class = fixation>+</div></div>","none","500","practice","","","","","","","","",""
"796","66","poldrack-categorize","19","117428","0.0-18.0","b661b187-4c18-4162-94c2-d5c7e6075cfa","","1500","250","stim","","<div class = centerbox><div class = stroop-stim style = ""color:blue"">BLUE</div></div>","66,71,82","1500","practice","true","66","500","congruent","blue","blue","","",""
"-1","-1","poldrack-single-stim","20","118189","0.0-19.0","b661b187-4c18-4162-94c2-d5c7e6075cfa","","500","500","fixation","","<div class = centerbox><div class = fixation>+</div></div>","none","500","practice","","","","","","","","",""
"914","66","poldrack-categorize","21","120702","0.0-20.0","b661b187-4c18-4162-94c2-d5c7e6075cfa","","1500","250","stim","","<div class = centerbox><div class = stroop-stim style = ""color:blue"">RED</div></div>","66,71,82","1500","practice","true","66","500","incongruent","blue","red","","",""
"-1","-1","poldrack-single-stim","22","121463","0.0-21.0","b661b187-4c18-4162-94c2-d5c7e6075cfa","","500","500","fixation","","<div class = centerbox><div class = fixation>+</div></div>","none","500","practice","","","","","","","","",""
"882","66","poldrack-categorize","23","123976","0.0-22.0","b661b187-4c18-4162-94c2-d5c7e6075cfa","","1500","250","stim","","<div class = centerbox><div class = stroop-stim style = ""color:blue"">RED</div></div>","66,71,82","1500","practice","true","66","500","incongruent","blue","red","","",""
"-1","-1","poldrack-single-stim","24","124736","0.0-23.0","b661b187-4c18-4162-94c2-d5c7e6075cfa","","500","500","fixation","","<div class = centerbox><div class = fixation>+</div></div>","none","500","practice","","","","","","","","",""
"706","82","poldrack-categorize","25","127244","0.0-24.0","b661b187-4c18-4162-94c2-d5c7e6075cfa","","1500","250","stim","","<div class = centerbox><div class = stroop-stim style = ""color:red"">GREEN</div></div>","66,71,82","1500","practice","true","82","500","incongruent","red","green","","",""
"-1","-1","poldrack-single-stim","26","128004","0.0-25.0","b661b187-4c18-4162-94c2-d5c7e6075cfa","","500","500","fixation","","<div class = centerbox><div class = fixation>+</div></div>","none","500","practice","","","","","","","","",""
"875","71","poldrack-categorize","27","130518","0.0-26.0","b661b187-4c18-4162-94c2-d5c7e6075cfa","","1500","250","stim","","<div class = centerbox><div class = stroop-stim style = ""color:green"">GREEN</div></div>","66,71,82","1500","practice","true","71","500","congruent","green","green","","",""
"-1","-1","poldrack-single-stim","28","131278","0.0-27.0","b661b187-4c18-4162-94c2-d5c7e6075cfa","","500","500","fixation","","<div class = centerbox><div class = fixation>+</div></div>","none","500","practice","","","","","","","","",""
"1133","66","poldrack-categorize","29","133786","0.0-28.0","b661b187-4c18-4162-94c2-d5c7e6075cfa","","1500","250","stim","","<div class = centerbox><div class = stroop-stim style = ""color:blue"">GREEN</div></div>","66,71,82","1500","practice","true","66","500","incongruent","blue","green","","",""
"-1","-1","poldrack-single-stim","30","134546","0.0-29.0","b661b187-4c18-4162-94c2-d5c7e6075cfa","","500","500","fixation","","<div class = centerbox><div class = fixation>+</div></div>","none","500","practice","","","","","","","","",""
"612","82","poldrack-categorize","31","137056","0.0-30.0","b661b187-4c18-4162-94c2-d5c7e6075cfa","","1500","250","stim","","<div class = centerbox><div class = stroop-stim style = ""color:red"">RED</div></div>","66,71,82","1500","practice","true","82","500","congruent","red","red","","",""
"-1","-1","poldrack-single-stim","32","137814","0.0-31.0","b661b187-4c18-4162-94c2-d5c7e6075cfa","","500","500","fixation","","<div class = centerbox><div class = fixation>+</div></div>","none","500","practice","","","","","","","","",""
"656","82","poldrack-categorize","33","140328","0.0-32.0","b661b187-4c18-4162-94c2-d5c7e6075cfa","","1500","250","stim","","<div class = centerbox><div class = stroop-stim style = ""color:red"">RED</div></div>","66,71,82","1500","practice","true","82","500","congruent","red","red","","",""
"-1","-1","poldrack-single-stim","34","141088","0.0-33.0","b661b187-4c18-4162-94c2-d5c7e6075cfa","","500","500","fixation","","<div class = centerbox><div class = fixation>+</div></div>","none","500","practice","","","","","","","","",""
"870","66","poldrack-categorize","35","143601","0.0-34.0","b661b187-4c18-4162-94c2-d5c7e6075cfa","","1500","250","stim","","<div class = centerbox><div class = stroop-stim style = ""color:green"">RED</div></div>","66,71,82","1500","practice","false","71","500","incongruent","green","red","","",""
"-1","-1","poldrack-single-stim","36","144362","0.0-35.0","b661b187-4c18-4162-94c2-d5c7e6075cfa","","500","500","fixation","","<div class = centerbox><div class = fixation>+</div></div>","none","500","practice","","","","","","","","",""
"856","66","poldrack-categorize","37","146869","0.0-36.0","b661b187-4c18-4162-94c2-d5c7e6075cfa","","1500","250","stim","","<div class = centerbox><div class = stroop-stim style = ""color:blue"">BLUE</div></div>","66,71,82","1500","practice","true","66","500","congruent","blue","blue","","",""
"-1","-1","poldrack-single-stim","38","147630","0.0-37.0","b661b187-4c18-4162-94c2-d5c7e6075cfa","","500","500","fixation","","<div class = centerbox><div class = fixation>+</div></div>","none","500","practice","","","","","","","","",""
"847","71","poldrack-categorize","39","150140","0.0-38.0","b661b187-4c18-4162-94c2-d5c7e6075cfa","","1500","250","stim","","<div class = centerbox><div class = stroop-stim style = ""color:green"">GREEN</div></div>","66,71,82","1500","practice","true","71","500","congruent","green","green","","",""
"-1","-1","poldrack-single-stim","40","150898","0.0-39.0","b661b187-4c18-4162-94c2-d5c7e6075cfa","","500","500","fixation","","<div class = centerbox><div class = fixation>+</div></div>","none","500","practice","","","","","","","","",""
"1299","71","poldrack-categorize","41","153411","0.0-40.0","b661b187-4c18-4162-94c2-d5c7e6075cfa","","1500","250","stim","","<div class = centerbox><div class = stroop-stim style = ""color:green"">GREEN</div></div>","66,71,82","1500","practice","true","71","500","congruent","green","green","","",""
"-1","-1","poldrack-single-stim","42","154172","0.0-41.0","b661b187-4c18-4162-94c2-d5c7e6075cfa","","500","500","fixation","","<div class = centerbox><div class = fixation>+</div></div>","none","500","practice","","","","","","","","",""
"1045","82","poldrack-categorize","43","156679","0.0-42.0","b661b187-4c18-4162-94c2-d5c7e6075cfa","","1500","250","stim","","<div class = centerbox><div class = stroop-stim style = ""color:blue"">BLUE</div></div>","66,71,82","1500","practice","false","66","500","congruent","blue","blue","","",""
"-1","-1","poldrack-single-stim","44","157440","0.0-43.0","b661b187-4c18-4162-94c2-d5c7e6075cfa","","500","500","fixation","","<div class = centerbox><div class = fixation>+</div></div>","none","500","practice","","","","","","","","",""
"1422","71","poldrack-categorize","45","159953","0.0-44.0","b661b187-4c18-4162-94c2-d5c7e6075cfa","","1500","250","stim","","<div class = centerbox><div class = stroop-stim style = ""color:green"">BLUE</div></div>","66,71,82","1500","practice","true","71","500","incongruent","green","blue","","",""
"-1","-1","poldrack-single-stim","46","160714","0.0-45.0","b661b187-4c18-4162-94c2-d5c7e6075cfa","","500","500","fixation","","<div class = centerbox><div class = fixation>+</div></div>","none","500","practice","","","","","","","","",""
"980","66","poldrack-categorize","47","163226","0.0-46.0","b661b187-4c18-4162-94c2-d5c7e6075cfa","","1500","250","stim","","<div class = centerbox><div class = stroop-stim style = ""color:blue"">BLUE</div></div>","66,71,82","1500","practice","true","66","500","congruent","blue","blue","","",""
"-1","-1","poldrack-single-stim","48","163987","0.0-47.0","b661b187-4c18-4162-94c2-d5c7e6075cfa","","500","500","fixation","","<div class = centerbox><div class = fixation>+</div></div>","none","500","practice","","","","","","","","",""
"846","71","poldrack-categorize","49","166495","0.0-48.0","b661b187-4c18-4162-94c2-d5c7e6075cfa","","1500","250","stim","","<div class = centerbox><div class = stroop-stim style = ""color:green"">BLUE</div></div>","66,71,82","1500","practice","true","71","500","incongruent","green","blue","","",""
"-1","-1","poldrack-single-stim","50","167255","0.0-49.0","b661b187-4c18-4162-94c2-d5c7e6075cfa","","500","500","fixation","","<div class = centerbox><div class = fixation>+</div></div>","none","500","practice","","","","","","","","",""
"870","82","poldrack-categorize","51","169768","0.0-50.0","b661b187-4c18-4162-94c2-d5c7e6075cfa","","1500","250","stim","","<div class = centerbox><div class = stroop-stim style = ""color:red"">BLUE</div></div>","66,71,82","1500","practice","true","82","500","incongruent","red","blue","","",""
"7093","13","poldrack-text","52","177117","0.0-52.0","b661b187-4c18-4162-94c2-d5c7e6075cfa","<div class = centerbox><p class = center-block-text>We will now start the test. Respond exactly like you did during practice.</p><p class = center-block-text>Press <strong>enter</strong> to begin the test.</p></div>","7093","1000","test_intro","","","","","","","","","","","","","",""
"-1","-1","poldrack-single-stim","53","178626","0.0-53.0","b661b187-4c18-4162-94c2-d5c7e6075cfa","","500","500","fixation","","<div class = centerbox><div class = fixation>+</div></div>","none","500","test","","","","","","","","",""
"765","82","poldrack-categorize","54","181130","0.0-54.0","b661b187-4c18-4162-94c2-d5c7e6075cfa","","1500","250","stim","","<div class = centerbox><div class = stroop-stim style = ""color:red"">BLUE</div></div>","66,71,82","1500","test","true","82","500","incongruent","red","blue","","",""
"-1","-1","poldrack-single-stim","55","181887","0.0-55.0","b661b187-4c18-4162-94c2-d5c7e6075cfa","","500","500","fixation","","<div class = centerbox><div class = fixation>+</div></div>","none","500","test","","","","","","","","",""
"728","71","poldrack-categorize","56","184396","0.0-56.0","b661b187-4c18-4162-94c2-d5c7e6075cfa","","1500","250","stim","","<div class = centerbox><div class = stroop-stim style = ""color:green"">RED</div></div>","66,71,82","1500","test","true","71","500","incongruent","green","red","","",""
"-1","-1","poldrack-single-stim","57","185151","0.0-57.0","b661b187-4c18-4162-94c2-d5c7e6075cfa","","500","500","fixation","","<div class = centerbox><div class = fixation>+</div></div>","none","500","test","","","","","","","","",""
"732","82","poldrack-categorize","58","187664","0.0-58.0","b661b187-4c18-4162-94c2-d5c7e6075cfa","","1500","250","stim","","<div class = centerbox><div class = stroop-stim style = ""color:red"">GREEN</div></div>","66,71,82","1500","test","true","82","500","incongruent","red","green","","",""
"-1","-1","poldrack-single-stim","59","188425","0.0-59.0","b661b187-4c18-4162-94c2-d5c7e6075cfa","","500","500","fixation","","<div class = centerbox><div class = fixation>+</div></div>","none","500","test","","","","","","","","",""
"596","82","poldrack-categorize","60","190938","0.0-60.0","b661b187-4c18-4162-94c2-d5c7e6075cfa","","1500","250","stim","","<div class = centerbox><div class = stroop-stim style = ""color:red"">RED</div></div>","66,71,82","1500","test","true","82","500","congruent","red","red","","",""
"-1","-1","poldrack-single-stim","61","191698","0.0-61.0","b661b187-4c18-4162-94c2-d5c7e6075cfa","","500","500","fixation","","<div class = centerbox><div class = fixation>+</div></div>","none","500","test","","","","","","","","",""
"633","66","poldrack-categorize","62","194212","0.0-62.0","b661b187-4c18-4162-94c2-d5c7e6075cfa","","1500","250","stim","","<div class = centerbox><div class = stroop-stim style = ""color:blue"">RED</div></div>","66,71,82","1500","test","true","66","500","incongruent","blue","red","","",""
"-1","-1","poldrack-single-stim","63","194972","0.0-63.0","b661b187-4c18-4162-94c2-d5c7e6075cfa","","500","500","fixation","","<div class = centerbox><div class = fixation>+</div></div>","none","500","test","","","","","","","","",""
"713","66","poldrack-categorize","64","197482","0.0-64.0","b661b187-4c18-4162-94c2-d5c7e6075cfa","","1500","250","stim","","<div class = centerbox><div class = stroop-stim style = ""color:blue"">RED</div></div>","66,71,82","1500","test","true","66","500","incongruent","blue","red","","",""
"-1","-1","poldrack-single-stim","65","198240","0.0-65.0","b661b187-4c18-4162-94c2-d5c7e6075cfa","","500","500","fixation","","<div class = centerbox><div class = fixation>+</div></div>","none","500","test","","","","","","","","",""
"698","71","poldrack-categorize","66","200754","0.0-66.0","b661b187-4c18-4162-94c2-d5c7e6075cfa","","1500","250","stim","","<div class = centerbox><div class = stroop-stim style = ""color:green"">GREEN</div></div>","66,71,82","1500","test","true","71","500","congruent","green","green","","",""
"-1","-1","poldrack-single-stim","67","201514","0.0-67.0","b661b187-4c18-4162-94c2-d5c7e6075cfa","","500","500","fixation","","<div class = centerbox><div class = fixation>+</div></div>","none","500","test","","","","","","","","",""
"674","66","poldrack-categorize","68","204027","0.0-68.0","b661b187-4c18-4162-94c2-d5c7e6075cfa","","1500","250","stim","","<div class = centerbox><div class = stroop-stim style = ""color:blue"">BLUE</div></div>","66,71,82","1500","test","true","66","500","congruent","blue","blue","","",""
"-1","-1","poldrack-single-stim","69","204788","0.0-69.0","b661b187-4c18-4162-94c2-d5c7e6075cfa","","500","500","fixation","","<div class = centerbox><div class = fixation>+</div></div>","none","500","test","","","","","","","","",""
"368","82","poldrack-categorize","70","207301","0.0-70.0","b661b187-4c18-4162-94c2-d5c7e6075cfa","","1500","250","stim","","<div class = centerbox><div class = stroop-stim style = ""color:red"">RED</div></div>","66,71,82","1500","test","true","82","500","congruent","red","red","","",""
"-1","-1","poldrack-single-stim","71","208062","0.0-71.0","b661b187-4c18-4162-94c2-d5c7e6075cfa","","500","500","fixation","","<div class = centerbox><div class = fixation>+</div></div>","none","500","test","","","","","","","","",""
"671","82","poldrack-categorize","72","210569","0.0-72.0","b661b187-4c18-4162-94c2-d5c7e6075cfa","","1500","250","stim","","<div class = centerbox><div class = stroop-stim style = ""color:red"">BLUE</div></div>","66,71,82","1500","test","true","82","500","incongruent","red","blue","","",""
"-1","-1","poldrack-single-stim","73","211326","0.0-73.0","b661b187-4c18-4162-94c2-d5c7e6075cfa","","500","500","fixation","","<div class = centerbox><div class = fixation>+</div></div>","none","500","test","","","","","","","","",""
"1131","71","poldrack-categorize","74","213836","0.0-74.0","b661b187-4c18-4162-94c2-d5c7e6075cfa","","1500","250","stim","","<div class = centerbox><div class = stroop-stim style = ""color:green"">GREEN</div></div>","66,71,82","1500","test","true","71","500","congruent","green","green","","",""
"-1","-1","poldrack-single-stim","75","214592","0.0-75.0","b661b187-4c18-4162-94c2-d5c7e6075cfa","","500","500","fixation","","<div class = centerbox><div class = fixation>+</div></div>","none","500","test","","","","","","","","",""
"1114","66","poldrack-categorize","76","217105","0.0-76.0","b661b187-4c18-4162-94c2-d5c7e6075cfa","","1500","250","stim","","<div class = centerbox><div class = stroop-stim style = ""color:blue"">GREEN</div></div>","66,71,82","1500","test","true","66","500","incongruent","blue","green","","",""
"-1","-1","poldrack-single-stim","77","217866","0.0-77.0","b661b187-4c18-4162-94c2-d5c7e6075cfa","","500","500","fixation","","<div class = centerbox><div class = fixation>+</div></div>","none","500","test","","","","","","","","",""
"833","66","poldrack-categorize","78","220379","0.0-78.0","b661b187-4c18-4162-94c2-d5c7e6075cfa","","1500","250","stim","","<div class = centerbox><div class = stroop-stim style = ""color:blue"">RED</div></div>","66,71,82","1500","test","true","66","500","incongruent","blue","red","","",""
"-1","-1","poldrack-single-stim","79","221140","0.0-79.0","b661b187-4c18-4162-94c2-d5c7e6075cfa","","500","500","fixation","","<div class = centerbox><div class = fixation>+</div></div>","none","500","test","","","","","","","","",""
"942","71","poldrack-categorize","80","223653","0.0-80.0","b661b187-4c18-4162-94c2-d5c7e6075cfa","","1500","250","stim","","<div class = centerbox><div class = stroop-stim style = ""color:green"">RED</div></div>","66,71,82","1500","test","true","71","500","incongruent","green","red","","",""
"-1","-1","poldrack-single-stim","81","224413","0.0-81.0","b661b187-4c18-4162-94c2-d5c7e6075cfa","","500","500","fixation","","<div class = centerbox><div class = fixation>+</div></div>","none","500","test","","","","","","","","",""
"661","82","poldrack-categorize","82","226927","0.0-82.0","b661b187-4c18-4162-94c2-d5c7e6075cfa","","1500","250","stim","","<div class = centerbox><div class = stroop-stim style = ""color:red"">GREEN</div></div>","66,71,82","1500","test","true","82","500","incongruent","red","green","","",""
"-1","-1","poldrack-single-stim","83","227686","0.0-83.0","b661b187-4c18-4162-94c2-d5c7e6075cfa","","500","500","fixation","","<div class = centerbox><div class = fixation>+</div></div>","none","500","test","","","","","","","","",""
"779","71","poldrack-categorize","84","230201","0.0-84.0","b661b187-4c18-4162-94c2-d5c7e6075cfa","","1500","250","stim","","<div class = centerbox><div class = stroop-stim style = ""color:green"">GREEN</div></div>","66,71,82","1500","test","true","71","500","congruent","green","green","","",""
"-1","-1","poldrack-single-stim","85","230961","0.0-85.0","b661b187-4c18-4162-94c2-d5c7e6075cfa","","500","500","fixation","","<div class = centerbox><div class = fixation>+</div></div>","none","500","test","","","","","","","","",""
"849","71","poldrack-categorize","86","233474","0.0-86.0","b661b187-4c18-4162-94c2-d5c7e6075cfa","","1500","250","stim","","<div class = centerbox><div class = stroop-stim style = ""color:green"">RED</div></div>","66,71,82","1500","test","true","71","500","incongruent","green","red","","",""
"-1","-1","poldrack-single-stim","87","234236","0.0-87.0","b661b187-4c18-4162-94c2-d5c7e6075cfa","","500","500","fixation","","<div class = centerbox><div class = fixation>+</div></div>","none","500","test","","","","","","","","",""
"519","82","poldrack-categorize","88","236748","0.0-88.0","b661b187-4c18-4162-94c2-d5c7e6075cfa","","1500","250","stim","","<div class = centerbox><div class = stroop-stim style = ""color:red"">RED</div></div>","66,71,82","1500","test","true","82","500","congruent","red","red","","",""
"-1","-1","poldrack-single-stim","89","237509","0.0-89.0","b661b187-4c18-4162-94c2-d5c7e6075cfa","","500","500","fixation","","<div class = centerbox><div class = fixation>+</div></div>","none","500","test","","","","","","","","",""
"613","66","poldrack-categorize","90","240022","0.0-90.0","b661b187-4c18-4162-94c2-d5c7e6075cfa","","1500","250","stim","","<div class = centerbox><div class = stroop-stim style = ""color:blue"">GREEN</div></div>","66,71,82","1500","test","true","66","500","incongruent","blue","green","","",""
"-1","-1","poldrack-single-stim","91","240782","0.0-91.0","b661b187-4c18-4162-94c2-d5c7e6075cfa","","500","500","fixation","","<div class = centerbox><div class = fixation>+</div></div>","none","500","test","","","","","","","","",""
"980","71","poldrack-categorize","92","243296","0.0-92.0","b661b187-4c18-4162-94c2-d5c7e6075cfa","","1500","250","stim","","<div class = centerbox><div class = stroop-stim style = ""color:green"">GREEN</div></div>","66,71,82","1500","test","true","71","500","congruent","green","green","","",""
"-1","-1","poldrack-single-stim","93","244056","0.0-93.0","b661b187-4c18-4162-94c2-d5c7e6075cfa","","500","500","fixation","","<div class = centerbox><div class = fixation>+</div></div>","none","500","test","","","","","","","","",""
"920","71","poldrack-categorize","94","246569","0.0-94.0","b661b187-4c18-4162-94c2-d5c7e6075cfa","","1500","250","stim","","<div class = centerbox><div class = stroop-stim style = ""color:green"">BLUE</div></div>","66,71,82","1500","test","true","71","500","incongruent","green","blue","","",""
"-1","-1","poldrack-single-stim","95","247330","0.0-95.0","b661b187-4c18-4162-94c2-d5c7e6075cfa","","500","500","fixation","","<div class = centerbox><div class = fixation>+</div></div>","none","500","test","","","","","","","","",""
"869","66","poldrack-categorize","96","249843","0.0-96.0","b661b187-4c18-4162-94c2-d5c7e6075cfa","","1500","250","stim","","<div class = centerbox><div class = stroop-stim style = ""color:blue"">BLUE</div></div>","66,71,82","1500","test","true","66","500","congruent","blue","blue","","",""
"-1","-1","poldrack-single-stim","97","250604","0.0-97.0","b661b187-4c18-4162-94c2-d5c7e6075cfa","","500","500","fixation","","<div class = centerbox><div class = fixation>+</div></div>","none","500","test","","","","","","","","",""
"877","71","poldrack-categorize","98","253117","0.0-98.0","b661b187-4c18-4162-94c2-d5c7e6075cfa","","1500","250","stim","","<div class = centerbox><div class = stroop-stim style = ""color:green"">RED</div></div>","66,71,82","1500","test","true","71","500","incongruent","green","red","","",""
"-1","-1","poldrack-single-stim","99","253878","0.0-99.0","b661b187-4c18-4162-94c2-d5c7e6075cfa","","500","500","fixation","","<div class = centerbox><div class = fixation>+</div></div>","none","500","test","","","","","","","","",""
"626","66","poldrack-categorize","100","256391","0.0-100.0","b661b187-4c18-4162-94c2-d5c7e6075cfa","","1500","250","stim","","<div class = centerbox><div class = stroop-stim style = ""color:blue"">GREEN</div></div>","66,71,82","1500","test","true","66","500","incongruent","blue","green","","",""
"-1","-1","poldrack-single-stim","101","257151","0.0-101.0","b661b187-4c18-4162-94c2-d5c7e6075cfa","","500","500","fixation","","<div class = centerbox><div class = fixation>+</div></div>","none","500","test","","","","","","","","",""
"528","82","poldrack-categorize","102","259665","0.0-102.0","b661b187-4c18-4162-94c2-d5c7e6075cfa","","1500","250","stim","","<div class = centerbox><div class = stroop-stim style = ""color:red"">RED</div></div>","66,71,82","1500","test","true","82","500","congruent","red","red","","",""
"-1","-1","poldrack-single-stim","103","260425","0.0-103.0","b661b187-4c18-4162-94c2-d5c7e6075cfa","","500","500","fixation","","<div class = centerbox><div class = fixation>+</div></div>","none","500","test","","","","","","","","",""
"966","66","poldrack-categorize","104","262939","0.0-104.0","b661b187-4c18-4162-94c2-d5c7e6075cfa","","1500","250","stim","","<div class = centerbox><div class = stroop-stim style = ""color:blue"">GREEN</div></div>","66,71,82","1500","test","true","66","500","incongruent","blue","green","","",""
"-1","-1","poldrack-single-stim","105","263699","0.0-105.0","b661b187-4c18-4162-94c2-d5c7e6075cfa","","500","500","fixation","","<div class = centerbox><div class = fixation>+</div></div>","none","500","test","","","","","","","","",""
"845","66","poldrack-categorize","106","266212","0.0-106.0","b661b187-4c18-4162-94c2-d5c7e6075cfa","","1500","250","stim","","<div class = centerbox><div class = stroop-stim style = ""color:blue"">RED</div></div>","66,71,82","1500","test","true","66","500","incongruent","blue","red","","",""
"-1","-1","poldrack-single-stim","107","266973","0.0-107.0","b661b187-4c18-4162-94c2-d5c7e6075cfa","","500","500","fixation","","<div class = centerbox><div class = fixation>+</div></div>","none","500","test","","","","","","","","",""
"627","66","poldrack-categorize","108","269486","0.0-108.0","b661b187-4c18-4162-94c2-d5c7e6075cfa","","1500","250","stim","","<div class = centerbox><div class = stroop-stim style = ""color:blue"">RED</div></div>","66,71,82","1500","test","true","66","500","incongruent","blue","red","","",""
"-1","-1","poldrack-single-stim","109","270247","0.0-109.0","b661b187-4c18-4162-94c2-d5c7e6075cfa","","500","500","fixation","","<div class = centerbox><div class = fixation>+</div></div>","none","500","test","","","","","","","","",""
"793","71","poldrack-categorize","110","272758","0.0-110.0","b661b187-4c18-4162-94c2-d5c7e6075cfa","","1500","250","stim","","<div class = centerbox><div class = stroop-stim style = ""color:green"">RED</div></div>","66,71,82","1500","test","true","71","500","incongruent","green","red","","",""
"-1","-1","poldrack-single-stim","111","273515","0.0-111.0","b661b187-4c18-4162-94c2-d5c7e6075cfa","","500","500","fixation","","<div class = centerbox><div class = fixation>+</div></div>","none","500","test","","","","","","","","",""
"906","71","poldrack-categorize","112","276028","0.0-112.0","b661b187-4c18-4162-94c2-d5c7e6075cfa","","1500","250","stim","","<div class = centerbox><div class = stroop-stim style = ""color:green"">GREEN</div></div>","66,71,82","1500","test","true","71","500","congruent","green","green","","",""
"-1","-1","poldrack-single-stim","113","276789","0.0-113.0","b661b187-4c18-4162-94c2-d5c7e6075cfa","","500","500","fixation","","<div class = centerbox><div class = fixation>+</div></div>","none","500","test","","","","","","","","",""
"786","71","poldrack-categorize","114","279302","0.0-114.0","b661b187-4c18-4162-94c2-d5c7e6075cfa","","1500","250","stim","","<div class = centerbox><div class = stroop-stim style = ""color:green"">BLUE</div></div>","66,71,82","1500","test","true","71","500","incongruent","green","blue","","",""
"-1","-1","poldrack-single-stim","115","280062","0.0-115.0","b661b187-4c18-4162-94c2-d5c7e6075cfa","","500","500","fixation","","<div class = centerbox><div class = fixation>+</div></div>","none","500","test","","","","","","","","",""
"617","66","poldrack-categorize","116","282576","0.0-116.0","b661b187-4c18-4162-94c2-d5c7e6075cfa","","1500","250","stim","","<div class = centerbox><div class = stroop-stim style = ""color:blue"">BLUE</div></div>","66,71,82","1500","test","true","66","500","congruent","blue","blue","","",""
"-1","-1","poldrack-single-stim","117","283336","0.0-117.0","b661b187-4c18-4162-94c2-d5c7e6075cfa","","500","500","fixation","","<div class = centerbox><div class = fixation>+</div></div>","none","500","test","","","","","","","","",""
"415","66","poldrack-categorize","118","285844","0.0-118.0","b661b187-4c18-4162-94c2-d5c7e6075cfa","","1500","250","stim","","<div class = centerbox><div class = stroop-stim style = ""color:blue"">BLUE</div></div>","66,71,82","1500","test","true","66","500","congruent","blue","blue","","",""
"-1","-1","poldrack-single-stim","119","286604","0.0-119.0","b661b187-4c18-4162-94c2-d5c7e6075cfa","","500","500","fixation","","<div class = centerbox><div class = fixation>+</div></div>","none","500","test","","","","","","","","",""
"584","82","poldrack-categorize","120","289117","0.0-120.0","b661b187-4c18-4162-94c2-d5c7e6075cfa","","1500","250","stim","","<div class = centerbox><div class = stroop-stim style = ""color:red"">RED</div></div>","66,71,82","1500","test","true","82","500","congruent","red","red","","",""
"-1","-1","poldrack-single-stim","121","289876","0.0-121.0","b661b187-4c18-4162-94c2-d5c7e6075cfa","","500","500","fixation","","<div class = centerbox><div class = fixation>+</div></div>","none","500","test","","","","","","","","",""
"841","66","poldrack-categorize","122","292390","0.0-122.0","b661b187-4c18-4162-94c2-d5c7e6075cfa","","1500","250","stim","","<div class = centerbox><div class = stroop-stim style = ""color:blue"">BLUE</div></div>","66,71,82","1500","test","true","66","500","congruent","blue","blue","","",""
"-1","-1","poldrack-single-stim","123","293146","0.0-123.0","b661b187-4c18-4162-94c2-d5c7e6075cfa","","500","500","fixation","","<div class = centerbox><div class = fixation>+</div></div>","none","500","test","","","","","","","","",""
"626","82","poldrack-categorize","124","295659","0.0-124.0","b661b187-4c18-4162-94c2-d5c7e6075cfa","","1500","250","stim","","<div class = centerbox><div class = stroop-stim style = ""color:red"">RED</div></div>","66,71,82","1500","test","true","82","500","congruent","red","red","","",""
"-1","-1","poldrack-single-stim","125","296414","0.0-125.0","b661b187-4c18-4162-94c2-d5c7e6075cfa","","500","500","fixation","","<div class = centerbox><div class = fixation>+</div></div>","none","500","test","","","","","","","","",""
"928","71","poldrack-categorize","126","298921","0.0-126.0","b661b187-4c18-4162-94c2-d5c7e6075cfa","","1500","250","stim","","<div class = centerbox><div class = stroop-stim style = ""color:green"">GREEN</div></div>","66,71,82","1500","test","true","71","500","congruent","green","green","","",""
"-1","-1","poldrack-single-stim","127","299682","0.0-127.0","b661b187-4c18-4162-94c2-d5c7e6075cfa","","500","500","fixation","","<div class = centerbox><div class = fixation>+</div></div>","none","500","test","","","","","","","","",""
"458","66","poldrack-categorize","128","302195","0.0-128.0","b661b187-4c18-4162-94c2-d5c7e6075cfa","","1500","250","stim","","<div class = centerbox><div class = stroop-stim style = ""color:blue"">BLUE</div></div>","66,71,82","1500","test","true","66","500","congruent","blue","blue","","",""
"-1","-1","poldrack-single-stim","129","302956","0.0-129.0","b661b187-4c18-4162-94c2-d5c7e6075cfa","","500","500","fixation","","<div class = centerbox><div class = fixation>+</div></div>","none","500","test","","","","","","","","",""
"632","66","poldrack-categorize","130","305469","0.0-130.0","b661b187-4c18-4162-94c2-d5c7e6075cfa","","1500","250","stim","","<div class = centerbox><div class = stroop-stim style = ""color:blue"">BLUE</div></div>","66,71,82","1500","test","true","66","500","congruent","blue","blue","","",""
"-1","-1","poldrack-single-stim","131","306230","0.0-131.0","b661b187-4c18-4162-94c2-d5c7e6075cfa","","500","500","fixation","","<div class = centerbox><div class = fixation>+</div></div>","none","500","test","","","","","","","","",""
"1135","71","poldrack-categorize","132","308743","0.0-132.0","b661b187-4c18-4162-94c2-d5c7e6075cfa","","1500","250","stim","","<div class = centerbox><div class = stroop-stim style = ""color:green"">BLUE</div></div>","66,71,82","1500","test","true","71","500","incongruent","green","blue","","",""
"-1","-1","poldrack-single-stim","133","309503","0.0-133.0","b661b187-4c18-4162-94c2-d5c7e6075cfa","","500","500","fixation","","<div class = centerbox><div class = fixation>+</div></div>","none","500","test","","","","","","","","",""
"750","82","poldrack-categorize","134","312017","0.0-134.0","b661b187-4c18-4162-94c2-d5c7e6075cfa","","1500","250","stim","","<div class = centerbox><div class = stroop-stim style = ""color:blue"">RED</div></div>","66,71,82","1500","test","false","66","500","incongruent","blue","red","","",""
"-1","-1","poldrack-single-stim","135","312777","0.0-135.0","b661b187-4c18-4162-94c2-d5c7e6075cfa","","500","500","fixation","","<div class = centerbox><div class = fixation>+</div></div>","none","500","test","","","","","","","","",""
"740","71","poldrack-categorize","136","315289","0.0-136.0","b661b187-4c18-4162-94c2-d5c7e6075cfa","","1500","250","stim","","<div class = centerbox><div class = stroop-stim style = ""color:green"">GREEN</div></div>","66,71,82","1500","test","true","71","500","congruent","green","green","","",""
"-1","-1","poldrack-single-stim","137","316045","0.0-137.0","b661b187-4c18-4162-94c2-d5c7e6075cfa","","500","500","fixation","","<div class = centerbox><div class = fixation>+</div></div>","none","500","test","","","","","","","","",""
"974","71","poldrack-categorize","138","318558","0.0-138.0","b661b187-4c18-4162-94c2-d5c7e6075cfa","","1500","250","stim","","<div class = centerbox><div class = stroop-stim style = ""color:green"">BLUE</div></div>","66,71,82","1500","test","true","71","500","incongruent","green","blue","","",""
"-1","-1","poldrack-single-stim","139","319317","0.0-139.0","b661b187-4c18-4162-94c2-d5c7e6075cfa","","500","500","fixation","","<div class = centerbox><div class = fixation>+</div></div>","none","500","test","","","","","","","","",""
"553","82","poldrack-categorize","140","321823","0.0-140.0","b661b187-4c18-4162-94c2-d5c7e6075cfa","","1500","250","stim","","<div class = centerbox><div class = stroop-stim style = ""color:red"">GREEN</div></div>","66,71,82","1500","test","true","82","500","incongruent","red","green","","",""
"-1","-1","poldrack-single-stim","141","322581","0.0-141.0","b661b187-4c18-4162-94c2-d5c7e6075cfa","","500","500","fixation","","<div class = centerbox><div class = fixation>+</div></div>","none","500","test","","","","","","","","",""
"685","82","poldrack-categorize","142","325094","0.0-142.0","b661b187-4c18-4162-94c2-d5c7e6075cfa","","1500","250","stim","","<div class = centerbox><div class = stroop-stim style = ""color:red"">BLUE</div></div>","66,71,82","1500","test","true","82","500","incongruent","red","blue","","",""
"-1","-1","poldrack-single-stim","143","325855","0.0-143.0","b661b187-4c18-4162-94c2-d5c7e6075cfa","","500","500","fixation","","<div class = centerbox><div class = fixation>+</div></div>","none","500","test","","","","","","","","",""
"685","71","poldrack-categorize","144","328368","0.0-144.0","b661b187-4c18-4162-94c2-d5c7e6075cfa","","1500","250","stim","","<div class = centerbox><div class = stroop-stim style = ""color:green"">BLUE</div></div>","66,71,82","1500","test","true","71","500","incongruent","green","blue","","",""
"-1","-1","poldrack-single-stim","145","329127","0.0-145.0","b661b187-4c18-4162-94c2-d5c7e6075cfa","","500","500","fixation","","<div class = centerbox><div class = fixation>+</div></div>","none","500","test","","","","","","","","",""
"635","82","poldrack-categorize","146","331642","0.0-146.0","b661b187-4c18-4162-94c2-d5c7e6075cfa","","1500","250","stim","","<div class = centerbox><div class = stroop-stim style = ""color:red"">GREEN</div></div>","66,71,82","1500","test","true","82","500","incongruent","red","green","","",""
"-1","-1","poldrack-single-stim","147","332399","0.0-147.0","b661b187-4c18-4162-94c2-d5c7e6075cfa","","500","500","fixation","","<div class = centerbox><div class = fixation>+</div></div>","none","500","test","","","","","","","","",""
"677","82","poldrack-categorize","148","334910","0.0-148.0","b661b187-4c18-4162-94c2-d5c7e6075cfa","","1500","250","stim","","<div class = centerbox><div class = stroop-stim style = ""color:red"">GREEN</div></div>","66,71,82","1500","test","true","82","500","incongruent","red","green","","",""
"-1","-1","poldrack-single-stim","149","335671","0.0-149.0","b661b187-4c18-4162-94c2-d5c7e6075cfa","","500","500","fixation","","<div class = centerbox><div class = fixation>+</div></div>","none","500","test","","","","","","","","",""
"876","71","poldrack-categorize","150","338184","0.0-150.0","b661b187-4c18-4162-94c2-d5c7e6075cfa","","1500","250","stim","","<div class = centerbox><div class = stroop-stim style = ""color:green"">GREEN</div></div>","66,71,82","1500","test","true","71","500","congruent","green","green","","",""
"-1","-1","poldrack-single-stim","151","338943","0.0-151.0","b661b187-4c18-4162-94c2-d5c7e6075cfa","","500","500","fixation","","<div class = centerbox><div class = fixation>+</div></div>","none","500","test","","","","","","","","",""
"695","82","poldrack-categorize","152","341448","0.0-152.0","b661b187-4c18-4162-94c2-d5c7e6075cfa","","1500","250","stim","","<div class = centerbox><div class = stroop-stim style = ""color:red"">RED</div></div>","66,71,82","1500","test","true","82","500","congruent","red","red","","",""
"-1","-1","poldrack-single-stim","153","342207","0.0-153.0","b661b187-4c18-4162-94c2-d5c7e6075cfa","","500","500","fixation","","<div class = centerbox><div class = fixation>+</div></div>","none","500","test","","","","","","","","",""
"827","66","poldrack-categorize","154","344720","0.0-154.0","b661b187-4c18-4162-94c2-d5c7e6075cfa","","1500","250","stim","","<div class = centerbox><div class = stroop-stim style = ""color:blue"">GREEN</div></div>","66,71,82","1500","test","true","66","500","incongruent","blue","green","","",""
"-1","-1","poldrack-single-stim","155","345480","0.0-155.0","b661b187-4c18-4162-94c2-d5c7e6075cfa","","500","500","fixation","","<div class = centerbox><div class = fixation>+</div></div>","none","500","test","","","","","","","","",""
"945","66","poldrack-categorize","156","347994","0.0-156.0","b661b187-4c18-4162-94c2-d5c7e6075cfa","","1500","250","stim","","<div class = centerbox><div class = stroop-stim style = ""color:blue"">BLUE</div></div>","66,71,82","1500","test","true","66","500","congruent","blue","blue","","",""
"-1","-1","poldrack-single-stim","157","348754","0.0-157.0","b661b187-4c18-4162-94c2-d5c7e6075cfa","","500","500","fixation","","<div class = centerbox><div class = fixation>+</div></div>","none","500","test","","","","","","","","",""
"774","82","poldrack-categorize","158","351267","0.0-158.0","b661b187-4c18-4162-94c2-d5c7e6075cfa","","1500","250","stim","","<div class = centerbox><div class = stroop-stim style = ""color:red"">RED</div></div>","66,71,82","1500","test","true","82","500","congruent","red","red","","",""
"-1","-1","poldrack-single-stim","159","352028","0.0-159.0","b661b187-4c18-4162-94c2-d5c7e6075cfa","","500","500","fixation","","<div class = centerbox><div class = fixation>+</div></div>","none","500","test","","","","","","","","",""
"1150","66","poldrack-categorize","160","354541","0.0-160.0","b661b187-4c18-4162-94c2-d5c7e6075cfa","","1500","250","stim","","<div class = centerbox><div class = stroop-stim style = ""color:blue"">GREEN</div></div>","66,71,82","1500","test","true","66","500","incongruent","blue","green","","",""
"-1","-1","poldrack-single-stim","161","355302","0.0-161.0","b661b187-4c18-4162-94c2-d5c7e6075cfa","","500","500","fixation","","<div class = centerbox><div class = fixation>+</div></div>","none","500","test","","","","","","","","",""
"692","82","poldrack-categorize","162","357809","0.0-162.0","b661b187-4c18-4162-94c2-d5c7e6075cfa","","1500","250","stim","","<div class = centerbox><div class = stroop-stim style = ""color:red"">RED</div></div>","66,71,82","1500","test","true","82","500","congruent","red","red","","",""
"-1","-1","poldrack-single-stim","163","358570","0.0-163.0","b661b187-4c18-4162-94c2-d5c7e6075cfa","","500","500","fixation","","<div class = centerbox><div class = fixation>+</div></div>","none","500","test","","","","","","","","",""
"878","71","poldrack-categorize","164","361083","0.0-164.0","b661b187-4c18-4162-94c2-d5c7e6075cfa","","1500","250","stim","","<div class = centerbox><div class = stroop-stim style = ""color:green"">GREEN</div></div>","66,71,82","1500","test","true","71","500","congruent","green","green","","",""
"-1","-1","poldrack-single-stim","165","361844","0.0-165.0","b661b187-4c18-4162-94c2-d5c7e6075cfa","","500","500","fixation","","<div class = centerbox><div class = fixation>+</div></div>","none","500","test","","","","","","","","",""
"1143","71","poldrack-categorize","166","364351","0.0-166.0","b661b187-4c18-4162-94c2-d5c7e6075cfa","","1500","250","stim","","<div class = centerbox><div class = stroop-stim style = ""color:green"">GREEN</div></div>","66,71,82","1500","test","true","71","500","congruent","green","green","","",""
"-1","-1","poldrack-single-stim","167","365112","0.0-167.0","b661b187-4c18-4162-94c2-d5c7e6075cfa","","500","500","fixation","","<div class = centerbox><div class = fixation>+</div></div>","none","500","test","","","","","","","","",""
"913","66","poldrack-categorize","168","367625","0.0-168.0","b661b187-4c18-4162-94c2-d5c7e6075cfa","","1500","250","stim","","<div class = centerbox><div class = stroop-stim style = ""color:blue"">BLUE</div></div>","66,71,82","1500","test","true","66","500","congruent","blue","blue","","",""
"-1","-1","poldrack-single-stim","169","368384","0.0-169.0","b661b187-4c18-4162-94c2-d5c7e6075cfa","","500","500","fixation","","<div class = centerbox><div class = fixation>+</div></div>","none","500","test","","","","","","","","",""
"783","66","poldrack-categorize","170","370899","0.0-170.0","b661b187-4c18-4162-94c2-d5c7e6075cfa","","1500","250","stim","","<div class = centerbox><div class = stroop-stim style = ""color:blue"">BLUE</div></div>","66,71,82","1500","test","true","66","500","congruent","blue","blue","","",""
"-1","-1","poldrack-single-stim","171","371659","0.0-171.0","b661b187-4c18-4162-94c2-d5c7e6075cfa","","500","500","fixation","","<div class = centerbox><div class = fixation>+</div></div>","none","500","test","","","","","","","","",""
"861","71","poldrack-categorize","172","374173","0.0-172.0","b661b187-4c18-4162-94c2-d5c7e6075cfa","","1500","250","stim","","<div class = centerbox><div class = stroop-stim style = ""color:green"">GREEN</div></div>","66,71,82","1500","test","true","71","500","congruent","green","green","","",""
"-1","-1","poldrack-single-stim","173","374933","0.0-173.0","b661b187-4c18-4162-94c2-d5c7e6075cfa","","500","500","fixation","","<div class = centerbox><div class = fixation>+</div></div>","none","500","test","","","","","","","","",""
"1140","82","poldrack-categorize","174","377446","0.0-174.0","b661b187-4c18-4162-94c2-d5c7e6075cfa","","1500","250","stim","","<div class = centerbox><div class = stroop-stim style = ""color:red"">BLUE</div></div>","66,71,82","1500","test","true","82","500","incongruent","red","blue","","",""
"-1","-1","poldrack-single-stim","175","378207","0.0-175.0","b661b187-4c18-4162-94c2-d5c7e6075cfa","","500","500","fixation","","<div class = centerbox><div class = fixation>+</div></div>","none","500","test","","","","","","","","",""
"1041","82","poldrack-categorize","176","380720","0.0-176.0","b661b187-4c18-4162-94c2-d5c7e6075cfa","","1500","250","stim","","<div class = centerbox><div class = stroop-stim style = ""color:red"">GREEN</div></div>","66,71,82","1500","test","true","82","500","incongruent","red","green","","",""
"-1","-1","poldrack-single-stim","177","381481","0.0-177.0","b661b187-4c18-4162-94c2-d5c7e6075cfa","","500","500","fixation","","<div class = centerbox><div class = fixation>+</div></div>","none","500","test","","","","","","","","",""
"671","82","poldrack-categorize","178","383994","0.0-178.0","b661b187-4c18-4162-94c2-d5c7e6075cfa","","1500","250","stim","","<div class = centerbox><div class = stroop-stim style = ""color:red"">RED</div></div>","66,71,82","1500","test","true","82","500","congruent","red","red","","",""
"-1","-1","poldrack-single-stim","179","384755","0.0-179.0","b661b187-4c18-4162-94c2-d5c7e6075cfa","","500","500","fixation","","<div class = centerbox><div class = fixation>+</div></div>","none","500","test","","","","","","","","",""
"1157","71","poldrack-categorize","180","387268","0.0-180.0","b661b187-4c18-4162-94c2-d5c7e6075cfa","","1500","250","stim","","<div class = centerbox><div class = stroop-stim style = ""color:green"">BLUE</div></div>","66,71,82","1500","test","true","71","500","incongruent","green","blue","","",""
"-1","-1","poldrack-single-stim","181","388023","0.0-181.0","b661b187-4c18-4162-94c2-d5c7e6075cfa","","500","500","fixation","","<div class = centerbox><div class = fixation>+</div></div>","none","500","test","","","","","","","","",""
"665","66","poldrack-categorize","182","390536","0.0-182.0","b661b187-4c18-4162-94c2-d5c7e6075cfa","","1500","250","stim","","<div class = centerbox><div class = stroop-stim style = ""color:blue"">BLUE</div></div>","66,71,82","1500","test","true","66","500","congruent","blue","blue","","",""
"-1","-1","poldrack-single-stim","183","391296","0.0-183.0","b661b187-4c18-4162-94c2-d5c7e6075cfa","","500","500","fixation","","<div class = centerbox><div class = fixation>+</div></div>","none","500","test","","","","","","","","",""
"880","66","poldrack-categorize","184","393810","0.0-184.0","b661b187-4c18-4162-94c2-d5c7e6075cfa","","1500","250","stim","","<div class = centerbox><div class = stroop-stim style = ""color:blue"">RED</div></div>","66,71,82","1500","test","true","66","500","incongruent","blue","red","","",""
"-1","-1","poldrack-single-stim","185","394568","0.0-185.0","b661b187-4c18-4162-94c2-d5c7e6075cfa","","500","500","fixation","","<div class = centerbox><div class = fixation>+</div></div>","none","500","test","","","","","","","","",""
"774","66","poldrack-categorize","186","397083","0.0-186.0","b661b187-4c18-4162-94c2-d5c7e6075cfa","","1500","250","stim","","<div class = centerbox><div class = stroop-stim style = ""color:blue"">BLUE</div></div>","66,71,82","1500","test","true","66","500","congruent","blue","blue","","",""
"-1","-1","poldrack-single-stim","187","397844","0.0-187.0","b661b187-4c18-4162-94c2-d5c7e6075cfa","","500","500","fixation","","<div class = centerbox><div class = fixation>+</div></div>","none","500","test","","","","","","","","",""
"747","66","poldrack-categorize","188","400357","0.0-188.0","b661b187-4c18-4162-94c2-d5c7e6075cfa","","1500","250","stim","","<div class = centerbox><div class = stroop-stim style = ""color:blue"">GREEN</div></div>","66,71,82","1500","test","true","66","500","incongruent","blue","green","","",""
"-1","-1","poldrack-single-stim","189","401118","0.0-189.0","b661b187-4c18-4162-94c2-d5c7e6075cfa","","500","500","fixation","","<div class = centerbox><div class = fixation>+</div></div>","none","500","test","","","","","","","","",""
"650","66","poldrack-categorize","190","403631","0.0-190.0","b661b187-4c18-4162-94c2-d5c7e6075cfa","","1500","250","stim","","<div class = centerbox><div class = stroop-stim style = ""color:blue"">BLUE</div></div>","66,71,82","1500","test","true","66","500","congruent","blue","blue","","",""
"-1","-1","poldrack-single-stim","191","404392","0.0-191.0","b661b187-4c18-4162-94c2-d5c7e6075cfa","","500","500","fixation","","<div class = centerbox><div class = fixation>+</div></div>","none","500","test","","","","","","","","",""
"703","82","poldrack-categorize","192","406905","0.0-192.0","b661b187-4c18-4162-94c2-d5c7e6075cfa","","1500","250","stim","","<div class = centerbox><div class = stroop-stim style = ""color:red"">RED</div></div>","66,71,82","1500","test","true","82","500","congruent","red","red","","",""
"-1","-1","poldrack-single-stim","193","407665","0.0-193.0","b661b187-4c18-4162-94c2-d5c7e6075cfa","","500","500","fixation","","<div class = centerbox><div class = fixation>+</div></div>","none","500","test","","","","","","","","",""
"1021","82","poldrack-categorize","194","410179","0.0-194.0","b661b187-4c18-4162-94c2-d5c7e6075cfa","","1500","250","stim","","<div class = centerbox><div class = stroop-stim style = ""color:red"">BLUE</div></div>","66,71,82","1500","test","true","82","500","incongruent","red","blue","","",""
"-1","-1","poldrack-single-stim","195","410939","0.0-195.0","b661b187-4c18-4162-94c2-d5c7e6075cfa","","500","500","fixation","","<div class = centerbox><div class = fixation>+</div></div>","none","500","test","","","","","","","","",""
"652","82","poldrack-categorize","196","413452","0.0-196.0","b661b187-4c18-4162-94c2-d5c7e6075cfa","","1500","250","stim","","<div class = centerbox><div class = stroop-stim style = ""color:red"">RED</div></div>","66,71,82","1500","test","true","82","500","congruent","red","red","","",""
"-1","-1","poldrack-single-stim","197","414213","0.0-197.0","b661b187-4c18-4162-94c2-d5c7e6075cfa","","500","500","fixation","","<div class = centerbox><div class = fixation>+</div></div>","none","500","test","","","","","","","","",""
"825","71","poldrack-categorize","198","416726","0.0-198.0","b661b187-4c18-4162-94c2-d5c7e6075cfa","","1500","250","stim","","<div class = centerbox><div class = stroop-stim style = ""color:green"">RED</div></div>","66,71,82","1500","test","true","71","500","incongruent","green","red","","",""
"-1","-1","poldrack-single-stim","199","417487","0.0-199.0","b661b187-4c18-4162-94c2-d5c7e6075cfa","","500","500","fixation","","<div class = centerbox><div class = fixation>+</div></div>","none","500","test","","","","","","","","",""
"736","82","poldrack-categorize","200","420000","0.0-200.0","b661b187-4c18-4162-94c2-d5c7e6075cfa","","1500","250","stim","","<div class = centerbox><div class = stroop-stim style = ""color:red"">RED</div></div>","66,71,82","1500","test","true","82","500","congruent","red","red","","",""
"-1","-1","poldrack-single-stim","201","420761","0.0-201.0","b661b187-4c18-4162-94c2-d5c7e6075cfa","","500","500","fixation","","<div class = centerbox><div class = fixation>+</div></div>","none","500","test","","","","","","","","",""
"805","71","poldrack-categorize","202","423274","0.0-202.0","b661b187-4c18-4162-94c2-d5c7e6075cfa","","1500","250","stim","","<div class = centerbox><div class = stroop-stim style = ""color:green"">GREEN</div></div>","66,71,82","1500","test","true","71","500","congruent","green","green","","",""
"-1","-1","poldrack-single-stim","203","424034","0.0-203.0","b661b187-4c18-4162-94c2-d5c7e6075cfa","","500","500","fixation","","<div class = centerbox><div class = fixation>+</div></div>","none","500","test","","","","","","","","",""
"971","71","poldrack-categorize","204","426548","0.0-204.0","b661b187-4c18-4162-94c2-d5c7e6075cfa","","1500","250","stim","","<div class = centerbox><div class = stroop-stim style = ""color:green"">RED</div></div>","66,71,82","1500","test","true","71","500","incongruent","green","red","","",""
"-1","-1","poldrack-single-stim","205","427308","0.0-205.0","b661b187-4c18-4162-94c2-d5c7e6075cfa","","500","500","fixation","","<div class = centerbox><div class = fixation>+</div></div>","none","500","test","","","","","","","","",""
"1016","66","poldrack-categorize","206","429821","0.0-206.0","b661b187-4c18-4162-94c2-d5c7e6075cfa","","1500","250","stim","","<div class = centerbox><div class = stroop-stim style = ""color:blue"">RED</div></div>","66,71,82","1500","test","true","66","500","incongruent","blue","red","","",""
"-1","-1","poldrack-single-stim","207","430582","0.0-207.0","b661b187-4c18-4162-94c2-d5c7e6075cfa","","500","500","fixation","","<div class = centerbox><div class = fixation>+</div></div>","none","500","test","","","","","","","","",""
"903","71","poldrack-categorize","208","433095","0.0-208.0","b661b187-4c18-4162-94c2-d5c7e6075cfa","","1500","250","stim","","<div class = centerbox><div class = stroop-stim style = ""color:green"">GREEN</div></div>","66,71,82","1500","test","true","71","500","congruent","green","green","","",""
"-1","-1","poldrack-single-stim","209","433856","0.0-209.0","b661b187-4c18-4162-94c2-d5c7e6075cfa","","500","500","fixation","","<div class = centerbox><div class = fixation>+</div></div>","none","500","test","","","","","","","","",""
"749","71","poldrack-categorize","210","436369","0.0-210.0","b661b187-4c18-4162-94c2-d5c7e6075cfa","","1500","250","stim","","<div class = centerbox><div class = stroop-stim style = ""color:green"">GREEN</div></div>","66,71,82","1500","test","true","71","500","congruent","green","green","","",""
"-1","-1","poldrack-single-stim","211","437130","0.0-211.0","b661b187-4c18-4162-94c2-d5c7e6075cfa","","500","500","fixation","","<div class = centerbox><div class = fixation>+</div></div>","none","500","test","","","","","","","","",""
"811","71","poldrack-categorize","212","439643","0.0-212.0","b661b187-4c18-4162-94c2-d5c7e6075cfa","","1500","250","stim","","<div class = centerbox><div class = stroop-stim style = ""color:green"">GREEN</div></div>","66,71,82","1500","test","true","71","500","congruent","green","green","","",""
"-1","-1","poldrack-single-stim","213","440403","0.0-213.0","b661b187-4c18-4162-94c2-d5c7e6075cfa","","500","500","fixation","","<div class = centerbox><div class = fixation>+</div></div>","none","500","test","","","","","","","","",""
"643","82","poldrack-categorize","214","442911","0.0-214.0","b661b187-4c18-4162-94c2-d5c7e6075cfa","","1500","250","stim","","<div class = centerbox><div class = stroop-stim style = ""color:red"">RED</div></div>","66,71,82","1500","test","true","82","500","congruent","red","red","","",""
"-1","-1","poldrack-single-stim","215","443671","0.0-215.0","b661b187-4c18-4162-94c2-d5c7e6075cfa","","500","500","fixation","","<div class = centerbox><div class = fixation>+</div></div>","none","500","test","","","","","","","","",""
"965","71","poldrack-categorize","216","446185","0.0-216.0","b661b187-4c18-4162-94c2-d5c7e6075cfa","","1500","250","stim","","<div class = centerbox><div class = stroop-stim style = ""color:green"">BLUE</div></div>","66,71,82","1500","test","true","71","500","incongruent","green","blue","","",""
"-1","-1","poldrack-single-stim","217","446945","0.0-217.0","b661b187-4c18-4162-94c2-d5c7e6075cfa","","500","500","fixation","","<div class = centerbox><div class = fixation>+</div></div>","none","500","test","","","","","","","","",""
"1147","82","poldrack-categorize","218","449455","0.0-218.0","b661b187-4c18-4162-94c2-d5c7e6075cfa","","1500","250","stim","","<div class = centerbox><div class = stroop-stim style = ""color:red"">GREEN</div></div>","66,71,82","1500","test","true","82","500","incongruent","red","green","","",""
"-1","-1","poldrack-single-stim","219","450213","0.0-219.0","b661b187-4c18-4162-94c2-d5c7e6075cfa","","500","500","fixation","","<div class = centerbox><div class = fixation>+</div></div>","none","500","test","","","","","","","","",""
"813","66","poldrack-categorize","220","452726","0.0-220.0","b661b187-4c18-4162-94c2-d5c7e6075cfa","","1500","250","stim","","<div class = centerbox><div class = stroop-stim style = ""color:blue"">BLUE</div></div>","66,71,82","1500","test","true","66","500","congruent","blue","blue","","",""
"-1","-1","poldrack-single-stim","221","453487","0.0-221.0","b661b187-4c18-4162-94c2-d5c7e6075cfa","","500","500","fixation","","<div class = centerbox><div class = fixation>+</div></div>","none","500","test","","","","","","","","",""
"595","82","poldrack-categorize","222","456000","0.0-222.0","b661b187-4c18-4162-94c2-d5c7e6075cfa","","1500","250","stim","","<div class = centerbox><div class = stroop-stim style = ""color:red"">RED</div></div>","66,71,82","1500","test","true","82","500","congruent","red","red","","",""
"-1","-1","poldrack-single-stim","223","456761","0.0-223.0","b661b187-4c18-4162-94c2-d5c7e6075cfa","","500","500","fixation","","<div class = centerbox><div class = fixation>+</div></div>","none","500","test","","","","","","","","",""
"731","71","poldrack-categorize","224","459274","0.0-224.0","b661b187-4c18-4162-94c2-d5c7e6075cfa","","1500","250","stim","","<div class = centerbox><div class = stroop-stim style = ""color:green"">GREEN</div></div>","66,71,82","1500","test","true","71","500","congruent","green","green","","",""
"-1","-1","poldrack-single-stim","225","460035","0.0-225.0","b661b187-4c18-4162-94c2-d5c7e6075cfa","","500","500","fixation","","<div class = centerbox><div class = fixation>+</div></div>","none","500","test","","","","","","","","",""
"945","71","poldrack-categorize","226","462548","0.0-226.0","b661b187-4c18-4162-94c2-d5c7e6075cfa","","1500","250","stim","","<div class = centerbox><div class = stroop-stim style = ""color:green"">BLUE</div></div>","66,71,82","1500","test","true","71","500","incongruent","green","blue","","",""
"-1","-1","poldrack-single-stim","227","463309","0.0-227.0","b661b187-4c18-4162-94c2-d5c7e6075cfa","","500","500","fixation","","<div class = centerbox><div class = fixation>+</div></div>","none","500","test","","","","","","","","",""
"767","66","poldrack-categorize","228","465822","0.0-228.0","b661b187-4c18-4162-94c2-d5c7e6075cfa","","1500","250","stim","","<div class = centerbox><div class = stroop-stim style = ""color:blue"">GREEN</div></div>","66,71,82","1500","test","true","66","500","incongruent","blue","green","","",""
"-1","-1","poldrack-single-stim","229","466582","0.0-229.0","b661b187-4c18-4162-94c2-d5c7e6075cfa","","500","500","fixation","","<div class = centerbox><div class = fixation>+</div></div>","none","500","test","","","","","","","","",""
"902","71","poldrack-categorize","230","469095","0.0-230.0","b661b187-4c18-4162-94c2-d5c7e6075cfa","","1500","250","stim","","<div class = centerbox><div class = stroop-stim style = ""color:green"">RED</div></div>","66,71,82","1500","test","true","71","500","incongruent","green","red","","",""
"-1","-1","poldrack-single-stim","231","469856","0.0-231.0","b661b187-4c18-4162-94c2-d5c7e6075cfa","","500","500","fixation","","<div class = centerbox><div class = fixation>+</div></div>","none","500","test","","","","","","","","",""
"762","82","poldrack-categorize","232","472369","0.0-232.0","b661b187-4c18-4162-94c2-d5c7e6075cfa","","1500","250","stim","","<div class = centerbox><div class = stroop-stim style = ""color:red"">BLUE</div></div>","66,71,82","1500","test","true","82","500","incongruent","red","blue","","",""
"-1","-1","poldrack-single-stim","233","473129","0.0-233.0","b661b187-4c18-4162-94c2-d5c7e6075cfa","","500","500","fixation","","<div class = centerbox><div class = fixation>+</div></div>","none","500","test","","","","","","","","",""
"609","82","poldrack-categorize","234","475640","0.0-234.0","b661b187-4c18-4162-94c2-d5c7e6075cfa","","1500","250","stim","","<div class = centerbox><div class = stroop-stim style = ""color:red"">BLUE</div></div>","66,71,82","1500","test","true","82","500","incongruent","red","blue","","",""
"-1","-1","poldrack-single-stim","235","476398","0.0-235.0","b661b187-4c18-4162-94c2-d5c7e6075cfa","","500","500","fixation","","<div class = centerbox><div class = fixation>+</div></div>","none","500","test","","","","","","","","",""
"618","82","poldrack-categorize","236","478911","0.0-236.0","b661b187-4c18-4162-94c2-d5c7e6075cfa","","1500","250","stim","","<div class = centerbox><div class = stroop-stim style = ""color:red"">RED</div></div>","66,71,82","1500","test","true","82","500","congruent","red","red","","",""
"-1","-1","poldrack-single-stim","237","479672","0.0-237.0","b661b187-4c18-4162-94c2-d5c7e6075cfa","","500","500","fixation","","<div class = centerbox><div class = fixation>+</div></div>","none","500","test","","","","","","","","",""
"683","82","poldrack-categorize","238","482185","0.0-238.0","b661b187-4c18-4162-94c2-d5c7e6075cfa","","1500","250","stim","","<div class = centerbox><div class = stroop-stim style = ""color:red"">BLUE</div></div>","66,71,82","1500","test","true","82","500","incongruent","red","blue","","",""
"-1","-1","poldrack-single-stim","239","482945","0.0-239.0","b661b187-4c18-4162-94c2-d5c7e6075cfa","","500","500","fixation","","<div class = centerbox><div class = fixation>+</div></div>","none","500","test","","","","","","","","",""
"672","82","poldrack-categorize","240","485459","0.0-240.0","b661b187-4c18-4162-94c2-d5c7e6075cfa","","1500","250","stim","","<div class = centerbox><div class = stroop-stim style = ""color:red"">GREEN</div></div>","66,71,82","1500","test","true","82","500","incongruent","red","green","","",""
"-1","-1","poldrack-single-stim","241","486219","0.0-241.0","b661b187-4c18-4162-94c2-d5c7e6075cfa","","500","500","fixation","","<div class = centerbox><div class = fixation>+</div></div>","none","500","test","","","","","","","","",""
"661","66","poldrack-categorize","242","488732","0.0-242.0","b661b187-4c18-4162-94c2-d5c7e6075cfa","","1500","250","stim","","<div class = centerbox><div class = stroop-stim style = ""color:blue"">BLUE</div></div>","66,71,82","1500","test","true","66","500","congruent","blue","blue","","",""
"-1","-1","poldrack-single-stim","243","489493","0.0-243.0","b661b187-4c18-4162-94c2-d5c7e6075cfa","","500","500","fixation","","<div class = centerbox><div class = fixation>+</div></div>","none","500","test","","","","","","","","",""
"644","66","poldrack-categorize","244","492006","0.0-244.0","b661b187-4c18-4162-94c2-d5c7e6075cfa","","1500","250","stim","","<div class = centerbox><div class = stroop-stim style = ""color:blue"">BLUE</div></div>","66,71,82","1500","test","true","66","500","congruent","blue","blue","","",""
"47889","","survey-text","245","540164","0.0-246.0","b661b187-4c18-4162-94c2-d5c7e6075cfa","","","","post task questions","","","","","","","","","","","","{""Q0"":""to identify the ink color of the words not what color the word was."",""Q1"":""""}","",""
"173434","13","poldrack-text","246","714603","0.0-247.0","b661b187-4c18-4162-94c2-d5c7e6075cfa","<div class = centerbox><p class = center-block-text>Thanks for completing this task!</p><p class = center-block-text>Press <strong>enter</strong> to continue.</p></div>","173434","0","end","","","","","","","","","","","","","stroop","true"
"888","13","text","247","715531","0.0-248.0","b661b187-4c18-4162-94c2-d5c7e6075cfa","","","","","","","","","","","","","","","","","",""
