rt,key_press,trial_type,trial_index,time_elapsed,internal_node_id,subject,text,block_duration,timing_post_trial,trial_id,view_history,stimulus,possible_responses,stim_duration,exp_stage,correct,correct_response,feedback_duration,condition,stim_color,stim_word,responses,exp_id,credit_var,stim_place,stim_id14716,13,text,0,14717,0.0-0.0,e1799639-a6e9-42e0-b55d-19049a5287e2,,,,,,,,,,,,,,,,,,,,2168,13,poldrack-text,1,17891,0.0-1.0-0.0,e1799639-a6e9-42e0-b55d-19049a5287e2,<div class = centerbox><p class = center-block-text>Welcome to the experiment. This experiment will take about 8 minutes. Press <strong>enter</strong> to begin.</p></div>,2168,0,instruction,,,,,,,,,,,,,,,,51971,,poldrack-instructions,2,69863,0.0-1.0-1.0,e1799639-a6e9-42e0-b55d-19049a5287e2,,,,instruction,"[{""page_index"":0,""viewing_time"":51970}]",,,,,,,,,,,,,,,2428,13,poldrack-text,3,73295,0.0-2.0,e1799639-a6e9-42e0-b55d-19049a5287e2,"<div class = centerbox><p class = block-text>We will start with a few practice trials. Remember, press the key corresponding to the <strong>ink</strong> color of the word: ""r"" for words colored red, ""b"" for words colored blue, and ""g"" for words colored green.</p><p class = block-text>Press <strong>enter</strong> to begin practice.</p></div>",2428,1000,practice_intro,,,,,,,,,,,,,,,,-1,-1,poldrack-single-stim,4,74804,0.0-3.0,e1799639-a6e9-42e0-b55d-19049a5287e2,,500,500,fixation,,<div class = centerbox><div class = fixation>+</div></div>,none,500,practice,,,,,,,,,,,781,82,poldrack-categorize,5,77312,0.0-4.0,e1799639-a6e9-42e0-b55d-19049a5287e2,,1500,250,stim,,"<div class = centerbox><div class = stroop-stim style = ""color:red"">BLUE</div></div>","66,71,82",1500,practice,TRUE,82,500,incongruent,red,blue,,,,,-1,-1,poldrack-single-stim,6,78071,0.0-5.0,e1799639-a6e9-42e0-b55d-19049a5287e2,,500,500,fixation,,<div class = centerbox><div class = fixation>+</div></div>,none,500,practice,,,,,,,,,,,687,66,poldrack-categorize,7,80584,0.0-6.0,e1799639-a6e9-42e0-b55d-19049a5287e2,,1500,250,stim,,"<div class = centerbox><div class = stroop-stim style = ""color:blue"">GREEN</div></div>","66,71,82",1500,practice,TRUE,66,500,incongruent,blue,green,,,,,-1,-1,poldrack-single-stim,8,81342,0.0-7.0,e1799639-a6e9-42e0-b55d-19049a5287e2,,500,500,fixation,,<div class = centerbox><div class = fixation>+</div></div>,none,500,practice,,,,,,,,,,,402,71,poldrack-categorize,9,83852,0.0-8.0,e1799639-a6e9-42e0-b55d-19049a5287e2,,1500,250,stim,,"<div class = centerbox><div class = stroop-stim style = ""color:green"">RED</div></div>","66,71,82",1500,practice,TRUE,71,500,incongruent,green,red,,,,,-1,-1,poldrack-single-stim,10,84618,0.0-9.0,e1799639-a6e9-42e0-b55d-19049a5287e2,,500,500,fixation,,<div class = centerbox><div class = fixation>+</div></div>,none,500,practice,,,,,,,,,,,407,82,poldrack-categorize,11,87126,0.0-10.0,e1799639-a6e9-42e0-b55d-19049a5287e2,,1500,250,stim,,"<div class = centerbox><div class = stroop-stim style = ""color:red"">RED</div></div>","66,71,82",1500,practice,TRUE,82,500,congruent,red,red,,,,,-1,-1,poldrack-single-stim,12,87886,0.0-11.0,e1799639-a6e9-42e0-b55d-19049a5287e2,,500,500,fixation,,<div class = centerbox><div class = fixation>+</div></div>,none,500,practice,,,,,,,,,,,615,66,poldrack-categorize,13,90399,0.0-12.0,e1799639-a6e9-42e0-b55d-19049a5287e2,,1500,250,stim,,"<div class = centerbox><div class = stroop-stim style = ""color:green"">BLUE</div></div>","66,71,82",1500,practice,FALSE,71,500,incongruent,green,blue,,,,,-1,-1,poldrack-single-stim,14,91158,0.0-13.0,e1799639-a6e9-42e0-b55d-19049a5287e2,,500,500,fixation,,<div class = centerbox><div class = fixation>+</div></div>,none,500,practice,,,,,,,,,,,691,71,poldrack-categorize,15,93668,0.0-14.0,e1799639-a6e9-42e0-b55d-19049a5287e2,,1500,250,stim,,"<div class = centerbox><div class = stroop-stim style = ""color:green"">GREEN</div></div>","66,71,82",1500,practice,TRUE,71,500,congruent,green,green,,,,,-1,-1,poldrack-single-stim,16,94428,0.0-15.0,e1799639-a6e9-42e0-b55d-19049a5287e2,,500,500,fixation,,<div class = centerbox><div class = fixation>+</div></div>,none,500,practice,,,,,,,,,,,377,66,poldrack-categorize,17,96941,0.0-16.0,e1799639-a6e9-42e0-b55d-19049a5287e2,,1500,250,stim,,"<div class = centerbox><div class = stroop-stim style = ""color:blue"">RED</div></div>","66,71,82",1500,practice,TRUE,66,500,incongruent,blue,red,,,,,-1,-1,poldrack-single-stim,18,97702,0.0-17.0,e1799639-a6e9-42e0-b55d-19049a5287e2,,500,500,fixation,,<div class = centerbox><div class = fixation>+</div></div>,none,500,practice,,,,,,,,,,,552,82,poldrack-categorize,19,100215,0.0-18.0,e1799639-a6e9-42e0-b55d-19049a5287e2,,1500,250,stim,,"<div class = centerbox><div class = stroop-stim style = ""color:red"">RED</div></div>","66,71,82",1500,practice,TRUE,82,500,congruent,red,red,,,,,-1,-1,poldrack-single-stim,20,100976,0.0-19.0,e1799639-a6e9-42e0-b55d-19049a5287e2,,500,500,fixation,,<div class = centerbox><div class = fixation>+</div></div>,none,500,practice,,,,,,,,,,,653,82,poldrack-categorize,21,103489,0.0-20.0,e1799639-a6e9-42e0-b55d-19049a5287e2,,1500,250,stim,,"<div class = centerbox><div class = stroop-stim style = ""color:red"">RED</div></div>","66,71,82",1500,practice,TRUE,82,500,congruent,red,red,,,,,-1,-1,poldrack-single-stim,22,104249,0.0-21.0,e1799639-a6e9-42e0-b55d-19049a5287e2,,500,500,fixation,,<div class = centerbox><div class = fixation>+</div></div>,none,500,practice,,,,,,,,,,,835,66,poldrack-categorize,23,106763,0.0-22.0,e1799639-a6e9-42e0-b55d-19049a5287e2,,1500,250,stim,,"<div class = centerbox><div class = stroop-stim style = ""color:blue"">RED</div></div>","66,71,82",1500,practice,TRUE,66,500,incongruent,blue,red,,,,,-1,-1,poldrack-single-stim,24,107523,0.0-23.0,e1799639-a6e9-42e0-b55d-19049a5287e2,,500,500,fixation,,<div class = centerbox><div class = fixation>+</div></div>,none,500,practice,,,,,,,,,,,713,82,poldrack-categorize,25,110036,0.0-24.0,e1799639-a6e9-42e0-b55d-19049a5287e2,,1500,250,stim,,"<div class = centerbox><div class = stroop-stim style = ""color:red"">RED</div></div>","66,71,82",1500,practice,TRUE,82,500,congruent,red,red,,,,,-1,-1,poldrack-single-stim,26,110797,0.0-25.0,e1799639-a6e9-42e0-b55d-19049a5287e2,,500,500,fixation,,<div class = centerbox><div class = fixation>+</div></div>,none,500,practice,,,,,,,,,,,662,71,poldrack-categorize,27,113310,0.0-26.0,e1799639-a6e9-42e0-b55d-19049a5287e2,,1500,250,stim,,"<div class = centerbox><div class = stroop-stim style = ""color:green"">GREEN</div></div>","66,71,82",1500,practice,TRUE,71,500,congruent,green,green,,,,,-1,-1,poldrack-single-stim,28,114065,0.0-27.0,e1799639-a6e9-42e0-b55d-19049a5287e2,,500,500,fixation,,<div class = centerbox><div class = fixation>+</div></div>,none,500,practice,,,,,,,,,,,666,66,poldrack-categorize,29,116578,0.0-28.0,e1799639-a6e9-42e0-b55d-19049a5287e2,,1500,250,stim,,"<div class = centerbox><div class = stroop-stim style = ""color:green"">BLUE</div></div>","66,71,82",1500,practice,FALSE,71,500,incongruent,green,blue,,,,,-1,-1,poldrack-single-stim,30,117339,0.0-29.0,e1799639-a6e9-42e0-b55d-19049a5287e2,,500,500,fixation,,<div class = centerbox><div class = fixation>+</div></div>,none,500,practice,,,,,,,,,,,674,66,poldrack-categorize,31,119851,0.0-30.0,e1799639-a6e9-42e0-b55d-19049a5287e2,,1500,250,stim,,"<div class = centerbox><div class = stroop-stim style = ""color:blue"">BLUE</div></div>","66,71,82",1500,practice,TRUE,66,500,congruent,blue,blue,,,,,-1,-1,poldrack-single-stim,32,120607,0.0-31.0,e1799639-a6e9-42e0-b55d-19049a5287e2,,500,500,fixation,,<div class = centerbox><div class = fixation>+</div></div>,none,500,practice,,,,,,,,,,,948,71,poldrack-categorize,33,123120,0.0-32.0,e1799639-a6e9-42e0-b55d-19049a5287e2,,1500,250,stim,,"<div class = centerbox><div class = stroop-stim style = ""color:green"">GREEN</div></div>","66,71,82",1500,practice,TRUE,71,500,congruent,green,green,,,,,-1,-1,poldrack-single-stim,34,123880,0.0-33.0,e1799639-a6e9-42e0-b55d-19049a5287e2,,500,500,fixation,,<div class = centerbox><div class = fixation>+</div></div>,none,500,practice,,,,,,,,,,,627,66,poldrack-categorize,35,126394,0.0-34.0,e1799639-a6e9-42e0-b55d-19049a5287e2,,1500,250,stim,,"<div class = centerbox><div class = stroop-stim style = ""color:blue"">BLUE</div></div>","66,71,82",1500,practice,TRUE,66,500,congruent,blue,blue,,,,,-1,-1,poldrack-single-stim,36,127154,0.0-35.0,e1799639-a6e9-42e0-b55d-19049a5287e2,,500,500,fixation,,<div class = centerbox><div class = fixation>+</div></div>,none,500,practice,,,,,,,,,,,408,66,poldrack-categorize,37,129668,0.0-36.0,e1799639-a6e9-42e0-b55d-19049a5287e2,,1500,250,stim,,"<div class = centerbox><div class = stroop-stim style = ""color:blue"">GREEN</div></div>","66,71,82",1500,practice,TRUE,66,500,incongruent,blue,green,,,,,-1,-1,poldrack-single-stim,38,130428,0.0-37.0,e1799639-a6e9-42e0-b55d-19049a5287e2,,500,500,fixation,,<div class = centerbox><div class = fixation>+</div></div>,none,500,practice,,,,,,,,,,,1254,71,poldrack-categorize,39,132941,0.0-38.0,e1799639-a6e9-42e0-b55d-19049a5287e2,,1500,250,stim,,"<div class = centerbox><div class = stroop-stim style = ""color:green"">RED</div></div>","66,71,82",1500,practice,TRUE,71,500,incongruent,green,red,,,,,-1,-1,poldrack-single-stim,40,133702,0.0-39.0,e1799639-a6e9-42e0-b55d-19049a5287e2,,500,500,fixation,,<div class = centerbox><div class = fixation>+</div></div>,none,500,practice,,,,,,,,,,,693,82,poldrack-categorize,41,136215,0.0-40.0,e1799639-a6e9-42e0-b55d-19049a5287e2,,1500,250,stim,,"<div class = centerbox><div class = stroop-stim style = ""color:red"">BLUE</div></div>","66,71,82",1500,practice,TRUE,82,500,incongruent,red,blue,,,,,-1,-1,poldrack-single-stim,42,136976,0.0-41.0,e1799639-a6e9-42e0-b55d-19049a5287e2,,500,500,fixation,,<div class = centerbox><div class = fixation>+</div></div>,none,500,practice,,,,,,,,,,,699,71,poldrack-categorize,43,139489,0.0-42.0,e1799639-a6e9-42e0-b55d-19049a5287e2,,1500,250,stim,,"<div class = centerbox><div class = stroop-stim style = ""color:green"">GREEN</div></div>","66,71,82",1500,practice,TRUE,71,500,congruent,green,green,,,,,-1,-1,poldrack-single-stim,44,140250,0.0-43.0,e1799639-a6e9-42e0-b55d-19049a5287e2,,500,500,fixation,,<div class = centerbox><div class = fixation>+</div></div>,none,500,practice,,,,,,,,,,,440,66,poldrack-categorize,45,142763,0.0-44.0,e1799639-a6e9-42e0-b55d-19049a5287e2,,1500,250,stim,,"<div class = centerbox><div class = stroop-stim style = ""color:blue"">BLUE</div></div>","66,71,82",1500,practice,TRUE,66,500,congruent,blue,blue,,,,,-1,-1,poldrack-single-stim,46,143523,0.0-45.0,e1799639-a6e9-42e0-b55d-19049a5287e2,,500,500,fixation,,<div class = centerbox><div class = fixation>+</div></div>,none,500,practice,,,,,,,,,,,423,66,poldrack-categorize,47,146037,0.0-46.0,e1799639-a6e9-42e0-b55d-19049a5287e2,,1500,250,stim,,"<div class = centerbox><div class = stroop-stim style = ""color:blue"">BLUE</div></div>","66,71,82",1500,practice,TRUE,66,500,congruent,blue,blue,,,,,-1,-1,poldrack-single-stim,48,146797,0.0-47.0,e1799639-a6e9-42e0-b55d-19049a5287e2,,500,500,fixation,,<div class = centerbox><div class = fixation>+</div></div>,none,500,practice,,,,,,,,,,,1060,82,poldrack-categorize,49,149310,0.0-48.0,e1799639-a6e9-42e0-b55d-19049a5287e2,,1500,250,stim,,"<div class = centerbox><div class = stroop-stim style = ""color:red"">GREEN</div></div>","66,71,82",1500,practice,TRUE,82,500,incongruent,red,green,,,,,-1,-1,poldrack-single-stim,50,150067,0.0-49.0,e1799639-a6e9-42e0-b55d-19049a5287e2,,500,500,fixation,,<div class = centerbox><div class = fixation>+</div></div>,none,500,practice,,,,,,,,,,,632,82,poldrack-categorize,51,152578,0.0-50.0,e1799639-a6e9-42e0-b55d-19049a5287e2,,1500,250,stim,,"<div class = centerbox><div class = stroop-stim style = ""color:red"">GREEN</div></div>","66,71,82",1500,practice,TRUE,82,500,incongruent,red,green,,,,,1672,13,poldrack-text,52,154507,0.0-52.0,e1799639-a6e9-42e0-b55d-19049a5287e2,<div class = centerbox><p class = center-block-text>We will now start the test. Respond exactly like you did during practice.</p><p class = center-block-text>Press <strong>enter</strong> to begin the test.</p></div>,1672,1000,test_intro,,,,,,,,,,,,,,,,-1,-1,poldrack-single-stim,53,156015,0.0-53.0,e1799639-a6e9-42e0-b55d-19049a5287e2,,500,500,fixation,,<div class = centerbox><div class = fixation>+</div></div>,none,500,test,,,,,,,,,,,685,71,poldrack-categorize,54,158522,0.0-54.0,e1799639-a6e9-42e0-b55d-19049a5287e2,,1500,250,stim,,"<div class = centerbox><div class = stroop-stim style = ""color:green"">BLUE</div></div>","66,71,82",1500,test,TRUE,71,500,incongruent,green,blue,,,,,-1,-1,poldrack-single-stim,55,159283,0.0-55.0,e1799639-a6e9-42e0-b55d-19049a5287e2,,500,500,fixation,,<div class = centerbox><div class = fixation>+</div></div>,none,500,test,,,,,,,,,,,511,71,poldrack-categorize,56,161796,0.0-56.0,e1799639-a6e9-42e0-b55d-19049a5287e2,,1500,250,stim,,"<div class = centerbox><div class = stroop-stim style = ""color:green"">GREEN</div></div>","66,71,82",1500,test,TRUE,71,500,congruent,green,green,,,,,-1,-1,poldrack-single-stim,57,162554,0.0-57.0,e1799639-a6e9-42e0-b55d-19049a5287e2,,500,500,fixation,,<div class = centerbox><div class = fixation>+</div></div>,none,500,test,,,,,,,,,,,337,66,poldrack-categorize,58,165064,0.0-58.0,e1799639-a6e9-42e0-b55d-19049a5287e2,,1500,250,stim,,"<div class = centerbox><div class = stroop-stim style = ""color:blue"">BLUE</div></div>","66,71,82",1500,test,TRUE,66,500,congruent,blue,blue,,,,,-1,-1,poldrack-single-stim,59,165825,0.0-59.0,e1799639-a6e9-42e0-b55d-19049a5287e2,,500,500,fixation,,<div class = centerbox><div class = fixation>+</div></div>,none,500,test,,,,,,,,,,,585,82,poldrack-categorize,60,168338,0.0-60.0,e1799639-a6e9-42e0-b55d-19049a5287e2,,1500,250,stim,,"<div class = centerbox><div class = stroop-stim style = ""color:red"">GREEN</div></div>","66,71,82",1500,test,TRUE,82,500,incongruent,red,green,,,,,-1,-1,poldrack-single-stim,61,169099,0.0-61.0,e1799639-a6e9-42e0-b55d-19049a5287e2,,500,500,fixation,,<div class = centerbox><div class = fixation>+</div></div>,none,500,test,,,,,,,,,,,504,66,poldrack-categorize,62,171612,0.0-62.0,e1799639-a6e9-42e0-b55d-19049a5287e2,,1500,250,stim,,"<div class = centerbox><div class = stroop-stim style = ""color:blue"">BLUE</div></div>","66,71,82",1500,test,TRUE,66,500,congruent,blue,blue,,,,,-1,-1,poldrack-single-stim,63,172372,0.0-63.0,e1799639-a6e9-42e0-b55d-19049a5287e2,,500,500,fixation,,<div class = centerbox><div class = fixation>+</div></div>,none,500,test,,,,,,,,,,,563,82,poldrack-categorize,64,174886,0.0-64.0,e1799639-a6e9-42e0-b55d-19049a5287e2,,1500,250,stim,,"<div class = centerbox><div class = stroop-stim style = ""color:red"">GREEN</div></div>","66,71,82",1500,test,TRUE,82,500,incongruent,red,green,,,,,-1,-1,poldrack-single-stim,65,175643,0.0-65.0,e1799639-a6e9-42e0-b55d-19049a5287e2,,500,500,fixation,,<div class = centerbox><div class = fixation>+</div></div>,none,500,test,,,,,,,,,,,620,71,poldrack-categorize,66,178153,0.0-66.0,e1799639-a6e9-42e0-b55d-19049a5287e2,,1500,250,stim,,"<div class = centerbox><div class = stroop-stim style = ""color:green"">GREEN</div></div>","66,71,82",1500,test,TRUE,71,500,congruent,green,green,,,,,-1,-1,poldrack-single-stim,67,178914,0.0-67.0,e1799639-a6e9-42e0-b55d-19049a5287e2,,500,500,fixation,,<div class = centerbox><div class = fixation>+</div></div>,none,500,test,,,,,,,,,,,879,82,poldrack-categorize,68,181428,0.0-68.0,e1799639-a6e9-42e0-b55d-19049a5287e2,,1500,250,stim,,"<div class = centerbox><div class = stroop-stim style = ""color:green"">BLUE</div></div>","66,71,82",1500,test,FALSE,71,500,incongruent,green,blue,,,,,-1,-1,poldrack-single-stim,69,182188,0.0-69.0,e1799639-a6e9-42e0-b55d-19049a5287e2,,500,500,fixation,,<div class = centerbox><div class = fixation>+</div></div>,none,500,test,,,,,,,,,,,564,71,poldrack-categorize,70,184701,0.0-70.0,e1799639-a6e9-42e0-b55d-19049a5287e2,,1500,250,stim,,"<div class = centerbox><div class = stroop-stim style = ""color:green"">GREEN</div></div>","66,71,82",1500,test,TRUE,71,500,congruent,green,green,,,,,-1,-1,poldrack-single-stim,71,185462,0.0-71.0,e1799639-a6e9-42e0-b55d-19049a5287e2,,500,500,fixation,,<div class = centerbox><div class = fixation>+</div></div>,none,500,test,,,,,,,,,,,362,66,poldrack-categorize,72,187973,0.0-72.0,e1799639-a6e9-42e0-b55d-19049a5287e2,,1500,250,stim,,"<div class = centerbox><div class = stroop-stim style = ""color:blue"">BLUE</div></div>","66,71,82",1500,test,TRUE,66,500,congruent,blue,blue,,,,,-1,-1,poldrack-single-stim,73,188730,0.0-73.0,e1799639-a6e9-42e0-b55d-19049a5287e2,,500,500,fixation,,<div class = centerbox><div class = fixation>+</div></div>,none,500,test,,,,,,,,,,,476,82,poldrack-categorize,74,191243,0.0-74.0,e1799639-a6e9-42e0-b55d-19049a5287e2,,1500,250,stim,,"<div class = centerbox><div class = stroop-stim style = ""color:red"">RED</div></div>","66,71,82",1500,test,TRUE,82,500,congruent,red,red,,,,,-1,-1,poldrack-single-stim,75,192004,0.0-75.0,e1799639-a6e9-42e0-b55d-19049a5287e2,,500,500,fixation,,<div class = centerbox><div class = fixation>+</div></div>,none,500,test,,,,,,,,,,,900,71,poldrack-categorize,76,194517,0.0-76.0,e1799639-a6e9-42e0-b55d-19049a5287e2,,1500,250,stim,,"<div class = centerbox><div class = stroop-stim style = ""color:green"">GREEN</div></div>","66,71,82",1500,test,TRUE,71,500,congruent,green,green,,,,,-1,-1,poldrack-single-stim,77,195277,0.0-77.0,e1799639-a6e9-42e0-b55d-19049a5287e2,,500,500,fixation,,<div class = centerbox><div class = fixation>+</div></div>,none,500,test,,,,,,,,,,,643,66,poldrack-categorize,78,197791,0.0-78.0,e1799639-a6e9-42e0-b55d-19049a5287e2,,1500,250,stim,,"<div class = centerbox><div class = stroop-stim style = ""color:red"">RED</div></div>","66,71,82",1500,test,FALSE,82,500,congruent,red,red,,,,,-1,-1,poldrack-single-stim,79,198551,0.0-79.0,e1799639-a6e9-42e0-b55d-19049a5287e2,,500,500,fixation,,<div class = centerbox><div class = fixation>+</div></div>,none,500,test,,,,,,,,,,,1137,82,poldrack-categorize,80,201065,0.0-80.0,e1799639-a6e9-42e0-b55d-19049a5287e2,,1500,250,stim,,"<div class = centerbox><div class = stroop-stim style = ""color:red"">RED</div></div>","66,71,82",1500,test,TRUE,82,500,congruent,red,red,,,,,-1,-1,poldrack-single-stim,81,201825,0.0-81.0,e1799639-a6e9-42e0-b55d-19049a5287e2,,500,500,fixation,,<div class = centerbox><div class = fixation>+</div></div>,none,500,test,,,,,,,,,,,831,66,poldrack-categorize,82,204335,0.0-82.0,e1799639-a6e9-42e0-b55d-19049a5287e2,,1500,250,stim,,"<div class = centerbox><div class = stroop-stim style = ""color:blue"">RED</div></div>","66,71,82",1500,test,TRUE,66,500,incongruent,blue,red,,,,,-1,-1,poldrack-single-stim,83,205093,0.0-83.0,e1799639-a6e9-42e0-b55d-19049a5287e2,,500,500,fixation,,<div class = centerbox><div class = fixation>+</div></div>,none,500,test,,,,,,,,,,,953,82,poldrack-categorize,84,207606,0.0-84.0,e1799639-a6e9-42e0-b55d-19049a5287e2,,1500,250,stim,,"<div class = centerbox><div class = stroop-stim style = ""color:red"">BLUE</div></div>","66,71,82",1500,test,TRUE,82,500,incongruent,red,blue,,,,,-1,-1,poldrack-single-stim,85,208367,0.0-85.0,e1799639-a6e9-42e0-b55d-19049a5287e2,,500,500,fixation,,<div class = centerbox><div class = fixation>+</div></div>,none,500,test,,,,,,,,,,,536,82,poldrack-categorize,86,210880,0.0-86.0,e1799639-a6e9-42e0-b55d-19049a5287e2,,1500,250,stim,,"<div class = centerbox><div class = stroop-stim style = ""color:red"">BLUE</div></div>","66,71,82",1500,test,TRUE,82,500,incongruent,red,blue,,,,,-1,-1,poldrack-single-stim,87,211641,0.0-87.0,e1799639-a6e9-42e0-b55d-19049a5287e2,,500,500,fixation,,<div class = centerbox><div class = fixation>+</div></div>,none,500,test,,,,,,,,,,,733,66,poldrack-categorize,88,214154,0.0-88.0,e1799639-a6e9-42e0-b55d-19049a5287e2,,1500,250,stim,,"<div class = centerbox><div class = stroop-stim style = ""color:blue"">GREEN</div></div>","66,71,82",1500,test,TRUE,66,500,incongruent,blue,green,,,,,-1,-1,poldrack-single-stim,89,214909,0.0-89.0,e1799639-a6e9-42e0-b55d-19049a5287e2,,500,500,fixation,,<div class = centerbox><div class = fixation>+</div></div>,none,500,test,,,,,,,,,,,561,82,poldrack-categorize,90,217422,0.0-90.0,e1799639-a6e9-42e0-b55d-19049a5287e2,,1500,250,stim,,"<div class = centerbox><div class = stroop-stim style = ""color:red"">RED</div></div>","66,71,82",1500,test,TRUE,82,500,congruent,red,red,,,,,-1,-1,poldrack-single-stim,91,218183,0.0-91.0,e1799639-a6e9-42e0-b55d-19049a5287e2,,500,500,fixation,,<div class = centerbox><div class = fixation>+</div></div>,none,500,test,,,,,,,,,,,713,66,poldrack-categorize,92,220696,0.0-92.0,e1799639-a6e9-42e0-b55d-19049a5287e2,,1500,250,stim,,"<div class = centerbox><div class = stroop-stim style = ""color:blue"">RED</div></div>","66,71,82",1500,test,TRUE,66,500,incongruent,blue,red,,,,,-1,-1,poldrack-single-stim,93,221456,0.0-93.0,e1799639-a6e9-42e0-b55d-19049a5287e2,,500,500,fixation,,<div class = centerbox><div class = fixation>+</div></div>,none,500,test,,,,,,,,,,,559,82,poldrack-categorize,94,223969,0.0-94.0,e1799639-a6e9-42e0-b55d-19049a5287e2,,1500,250,stim,,"<div class = centerbox><div class = stroop-stim style = ""color:red"">RED</div></div>","66,71,82",1500,test,TRUE,82,500,congruent,red,red,,,,,-1,-1,poldrack-single-stim,95,224730,0.0-95.0,e1799639-a6e9-42e0-b55d-19049a5287e2,,500,500,fixation,,<div class = centerbox><div class = fixation>+</div></div>,none,500,test,,,,,,,,,,,556,66,poldrack-categorize,96,227243,0.0-96.0,e1799639-a6e9-42e0-b55d-19049a5287e2,,1500,250,stim,,"<div class = centerbox><div class = stroop-stim style = ""color:blue"">BLUE</div></div>","66,71,82",1500,test,TRUE,66,500,congruent,blue,blue,,,,,-1,-1,poldrack-single-stim,97,228004,0.0-97.0,e1799639-a6e9-42e0-b55d-19049a5287e2,,500,500,fixation,,<div class = centerbox><div class = fixation>+</div></div>,none,500,test,,,,,,,,,,,666,66,poldrack-categorize,98,230517,0.0-98.0,e1799639-a6e9-42e0-b55d-19049a5287e2,,1500,250,stim,,"<div class = centerbox><div class = stroop-stim style = ""color:blue"">BLUE</div></div>","66,71,82",1500,test,TRUE,66,500,congruent,blue,blue,,,,,-1,-1,poldrack-single-stim,99,231278,0.0-99.0,e1799639-a6e9-42e0-b55d-19049a5287e2,,500,500,fixation,,<div class = centerbox><div class = fixation>+</div></div>,none,500,test,,,,,,,,,,,567,66,poldrack-categorize,100,233791,0.0-100.0,e1799639-a6e9-42e0-b55d-19049a5287e2,,1500,250,stim,,"<div class = centerbox><div class = stroop-stim style = ""color:blue"">BLUE</div></div>","66,71,82",1500,test,TRUE,66,500,congruent,blue,blue,,,,,-1,-1,poldrack-single-stim,101,234551,0.0-101.0,e1799639-a6e9-42e0-b55d-19049a5287e2,,500,500,fixation,,<div class = centerbox><div class = fixation>+</div></div>,none,500,test,,,,,,,,,,,422,66,poldrack-categorize,102,237065,0.0-102.0,e1799639-a6e9-42e0-b55d-19049a5287e2,,1500,250,stim,,"<div class = centerbox><div class = stroop-stim style = ""color:blue"">BLUE</div></div>","66,71,82",1500,test,TRUE,66,500,congruent,blue,blue,,,,,-1,-1,poldrack-single-stim,103,237825,0.0-103.0,e1799639-a6e9-42e0-b55d-19049a5287e2,,500,500,fixation,,<div class = centerbox><div class = fixation>+</div></div>,none,500,test,,,,,,,,,,,565,71,poldrack-categorize,104,240338,0.0-104.0,e1799639-a6e9-42e0-b55d-19049a5287e2,,1500,250,stim,,"<div class = centerbox><div class = stroop-stim style = ""color:green"">GREEN</div></div>","66,71,82",1500,test,TRUE,71,500,congruent,green,green,,,,,-1,-1,poldrack-single-stim,105,241099,0.0-105.0,e1799639-a6e9-42e0-b55d-19049a5287e2,,500,500,fixation,,<div class = centerbox><div class = fixation>+</div></div>,none,500,test,,,,,,,,,,,538,82,poldrack-categorize,106,243612,0.0-106.0,e1799639-a6e9-42e0-b55d-19049a5287e2,,1500,250,stim,,"<div class = centerbox><div class = stroop-stim style = ""color:red"">RED</div></div>","66,71,82",1500,test,TRUE,82,500,congruent,red,red,,,,,-1,-1,poldrack-single-stim,107,244373,0.0-107.0,e1799639-a6e9-42e0-b55d-19049a5287e2,,500,500,fixation,,<div class = centerbox><div class = fixation>+</div></div>,none,500,test,,,,,,,,,,,696,71,poldrack-categorize,108,246886,0.0-108.0,e1799639-a6e9-42e0-b55d-19049a5287e2,,1500,250,stim,,"<div class = centerbox><div class = stroop-stim style = ""color:green"">BLUE</div></div>","66,71,82",1500,test,TRUE,71,500,incongruent,green,blue,,,,,-1,-1,poldrack-single-stim,109,247647,0.0-109.0,e1799639-a6e9-42e0-b55d-19049a5287e2,,500,500,fixation,,<div class = centerbox><div class = fixation>+</div></div>,none,500,test,,,,,,,,,,,734,66,poldrack-categorize,110,250160,0.0-110.0,e1799639-a6e9-42e0-b55d-19049a5287e2,,1500,250,stim,,"<div class = centerbox><div class = stroop-stim style = ""color:blue"">GREEN</div></div>","66,71,82",1500,test,TRUE,66,500,incongruent,blue,green,,,,,-1,-1,poldrack-single-stim,111,250917,0.0-111.0,e1799639-a6e9-42e0-b55d-19049a5287e2,,500,500,fixation,,<div class = centerbox><div class = fixation>+</div></div>,none,500,test,,,,,,,,,,,574,82,poldrack-categorize,112,253428,0.0-112.0,e1799639-a6e9-42e0-b55d-19049a5287e2,,1500,250,stim,,"<div class = centerbox><div class = stroop-stim style = ""color:red"">GREEN</div></div>","66,71,82",1500,test,TRUE,82,500,incongruent,red,green,,,,,-1,-1,poldrack-single-stim,113,254189,0.0-113.0,e1799639-a6e9-42e0-b55d-19049a5287e2,,500,500,fixation,,<div class = centerbox><div class = fixation>+</div></div>,none,500,test,,,,,,,,,,,504,82,poldrack-categorize,114,256702,0.0-114.0,e1799639-a6e9-42e0-b55d-19049a5287e2,,1500,250,stim,,"<div class = centerbox><div class = stroop-stim style = ""color:red"">RED</div></div>","66,71,82",1500,test,TRUE,82,500,congruent,red,red,,,,,-1,-1,poldrack-single-stim,115,257462,0.0-115.0,e1799639-a6e9-42e0-b55d-19049a5287e2,,500,500,fixation,,<div class = centerbox><div class = fixation>+</div></div>,none,500,test,,,,,,,,,,,669,71,poldrack-categorize,116,259976,0.0-116.0,e1799639-a6e9-42e0-b55d-19049a5287e2,,1500,250,stim,,"<div class = centerbox><div class = stroop-stim style = ""color:green"">BLUE</div></div>","66,71,82",1500,test,TRUE,71,500,incongruent,green,blue,,,,,-1,-1,poldrack-single-stim,117,260736,0.0-117.0,e1799639-a6e9-42e0-b55d-19049a5287e2,,500,500,fixation,,<div class = centerbox><div class = fixation>+</div></div>,none,500,test,,,,,,,,,,,659,82,poldrack-categorize,118,263249,0.0-118.0,e1799639-a6e9-42e0-b55d-19049a5287e2,,1500,250,stim,,"<div class = centerbox><div class = stroop-stim style = ""color:red"">GREEN</div></div>","66,71,82",1500,test,TRUE,82,500,incongruent,red,green,,,,,-1,-1,poldrack-single-stim,119,264006,0.0-119.0,e1799639-a6e9-42e0-b55d-19049a5287e2,,500,500,fixation,,<div class = centerbox><div class = fixation>+</div></div>,none,500,test,,,,,,,,,,,-1,-1,poldrack-categorize,120,266517,0.0-120.0,e1799639-a6e9-42e0-b55d-19049a5287e2,,1500,250,stim,,"<div class = centerbox><div class = stroop-stim style = ""color:red"">BLUE</div></div>","66,71,82",1500,test,FALSE,82,500,incongruent,red,blue,,,,,-1,-1,poldrack-single-stim,121,267280,0.0-121.0,e1799639-a6e9-42e0-b55d-19049a5287e2,,500,500,fixation,,<div class = centerbox><div class = fixation>+</div></div>,none,500,test,,,,,,,,,,,547,71,poldrack-categorize,122,269791,0.0-122.0,e1799639-a6e9-42e0-b55d-19049a5287e2,,1500,250,stim,,"<div class = centerbox><div class = stroop-stim style = ""color:green"">BLUE</div></div>","66,71,82",1500,test,TRUE,71,500,incongruent,green,blue,,,,,-1,-1,poldrack-single-stim,123,270552,0.0-123.0,e1799639-a6e9-42e0-b55d-19049a5287e2,,500,500,fixation,,<div class = centerbox><div class = fixation>+</div></div>,none,500,test,,,,,,,,,,,428,66,poldrack-categorize,124,273065,0.0-124.0,e1799639-a6e9-42e0-b55d-19049a5287e2,,1500,250,stim,,"<div class = centerbox><div class = stroop-stim style = ""color:blue"">GREEN</div></div>","66,71,82",1500,test,TRUE,66,500,incongruent,blue,green,,,,,-1,-1,poldrack-single-stim,125,273826,0.0-125.0,e1799639-a6e9-42e0-b55d-19049a5287e2,,500,500,fixation,,<div class = centerbox><div class = fixation>+</div></div>,none,500,test,,,,,,,,,,,481,71,poldrack-categorize,126,276339,0.0-126.0,e1799639-a6e9-42e0-b55d-19049a5287e2,,1500,250,stim,,"<div class = centerbox><div class = stroop-stim style = ""color:green"">GREEN</div></div>","66,71,82",1500,test,TRUE,71,500,congruent,green,green,,,,,-1,-1,poldrack-single-stim,127,277099,0.0-127.0,e1799639-a6e9-42e0-b55d-19049a5287e2,,500,500,fixation,,<div class = centerbox><div class = fixation>+</div></div>,none,500,test,,,,,,,,,,,696,82,poldrack-categorize,128,279613,0.0-128.0,e1799639-a6e9-42e0-b55d-19049a5287e2,,1500,250,stim,,"<div class = centerbox><div class = stroop-stim style = ""color:red"">BLUE</div></div>","66,71,82",1500,test,TRUE,82,500,incongruent,red,blue,,,,,-1,-1,poldrack-single-stim,129,280373,0.0-129.0,e1799639-a6e9-42e0-b55d-19049a5287e2,,500,500,fixation,,<div class = centerbox><div class = fixation>+</div></div>,none,500,test,,,,,,,,,,,653,71,poldrack-categorize,130,282886,0.0-130.0,e1799639-a6e9-42e0-b55d-19049a5287e2,,1500,250,stim,,"<div class = centerbox><div class = stroop-stim style = ""color:green"">GREEN</div></div>","66,71,82",1500,test,TRUE,71,500,congruent,green,green,,,,,-1,-1,poldrack-single-stim,131,283647,0.0-131.0,e1799639-a6e9-42e0-b55d-19049a5287e2,,500,500,fixation,,<div class = centerbox><div class = fixation>+</div></div>,none,500,test,,,,,,,,,,,666,82,poldrack-categorize,132,286160,0.0-132.0,e1799639-a6e9-42e0-b55d-19049a5287e2,,1500,250,stim,,"<div class = centerbox><div class = stroop-stim style = ""color:red"">GREEN</div></div>","66,71,82",1500,test,TRUE,82,500,incongruent,red,green,,,,,-1,-1,poldrack-single-stim,133,286921,0.0-133.0,e1799639-a6e9-42e0-b55d-19049a5287e2,,500,500,fixation,,<div class = centerbox><div class = fixation>+</div></div>,none,500,test,,,,,,,,,,,425,66,poldrack-categorize,134,289434,0.0-134.0,e1799639-a6e9-42e0-b55d-19049a5287e2,,1500,250,stim,,"<div class = centerbox><div class = stroop-stim style = ""color:blue"">BLUE</div></div>","66,71,82",1500,test,TRUE,66,500,congruent,blue,blue,,,,,-1,-1,poldrack-single-stim,135,290195,0.0-135.0,e1799639-a6e9-42e0-b55d-19049a5287e2,,500,500,fixation,,<div class = centerbox><div class = fixation>+</div></div>,none,500,test,,,,,,,,,,,552,66,poldrack-categorize,136,292708,0.0-136.0,e1799639-a6e9-42e0-b55d-19049a5287e2,,1500,250,stim,,"<div class = centerbox><div class = stroop-stim style = ""color:blue"">BLUE</div></div>","66,71,82",1500,test,TRUE,66,500,congruent,blue,blue,,,,,-1,-1,poldrack-single-stim,137,293463,0.0-137.0,e1799639-a6e9-42e0-b55d-19049a5287e2,,500,500,fixation,,<div class = centerbox><div class = fixation>+</div></div>,none,500,test,,,,,,,,,,,474,66,poldrack-categorize,138,295976,0.0-138.0,e1799639-a6e9-42e0-b55d-19049a5287e2,,1500,250,stim,,"<div class = centerbox><div class = stroop-stim style = ""color:blue"">BLUE</div></div>","66,71,82",1500,test,TRUE,66,500,congruent,blue,blue,,,,,-1,-1,poldrack-single-stim,139,296736,0.0-139.0,e1799639-a6e9-42e0-b55d-19049a5287e2,,500,500,fixation,,<div class = centerbox><div class = fixation>+</div></div>,none,500,test,,,,,,,,,,,641,82,poldrack-categorize,140,299250,0.0-140.0,e1799639-a6e9-42e0-b55d-19049a5287e2,,1500,250,stim,,"<div class = centerbox><div class = stroop-stim style = ""color:red"">GREEN</div></div>","66,71,82",1500,test,TRUE,82,500,incongruent,red,green,,,,,-1,-1,poldrack-single-stim,141,300010,0.0-141.0,e1799639-a6e9-42e0-b55d-19049a5287e2,,500,500,fixation,,<div class = centerbox><div class = fixation>+</div></div>,none,500,test,,,,,,,,,,,895,71,poldrack-categorize,142,302523,0.0-142.0,e1799639-a6e9-42e0-b55d-19049a5287e2,,1500,250,stim,,"<div class = centerbox><div class = stroop-stim style = ""color:blue"">RED</div></div>","66,71,82",1500,test,FALSE,66,500,incongruent,blue,red,,,,,-1,-1,poldrack-single-stim,143,303284,0.0-143.0,e1799639-a6e9-42e0-b55d-19049a5287e2,,500,500,fixation,,<div class = centerbox><div class = fixation>+</div></div>,none,500,test,,,,,,,,,,,571,82,poldrack-categorize,144,305797,0.0-144.0,e1799639-a6e9-42e0-b55d-19049a5287e2,,1500,250,stim,,"<div class = centerbox><div class = stroop-stim style = ""color:red"">RED</div></div>","66,71,82",1500,test,TRUE,82,500,congruent,red,red,,,,,-1,-1,poldrack-single-stim,145,306558,0.0-145.0,e1799639-a6e9-42e0-b55d-19049a5287e2,,500,500,fixation,,<div class = centerbox><div class = fixation>+</div></div>,none,500,test,,,,,,,,,,,1113,66,poldrack-categorize,146,309070,0.0-146.0,e1799639-a6e9-42e0-b55d-19049a5287e2,,1500,250,stim,,"<div class = centerbox><div class = stroop-stim style = ""color:green"">GREEN</div></div>","66,71,82",1500,test,FALSE,71,500,congruent,green,green,,,,,-1,-1,poldrack-single-stim,147,309826,0.0-147.0,e1799639-a6e9-42e0-b55d-19049a5287e2,,500,500,fixation,,<div class = centerbox><div class = fixation>+</div></div>,none,500,test,,,,,,,,,,,655,66,poldrack-categorize,148,312339,0.0-148.0,e1799639-a6e9-42e0-b55d-19049a5287e2,,1500,250,stim,,"<div class = centerbox><div class = stroop-stim style = ""color:blue"">GREEN</div></div>","66,71,82",1500,test,TRUE,66,500,incongruent,blue,green,,,,,-1,-1,poldrack-single-stim,149,313100,0.0-149.0,e1799639-a6e9-42e0-b55d-19049a5287e2,,500,500,fixation,,<div class = centerbox><div class = fixation>+</div></div>,none,500,test,,,,,,,,,,,492,82,poldrack-categorize,150,315613,0.0-150.0,e1799639-a6e9-42e0-b55d-19049a5287e2,,1500,250,stim,,"<div class = centerbox><div class = stroop-stim style = ""color:red"">BLUE</div></div>","66,71,82",1500,test,TRUE,82,500,incongruent,red,blue,,,,,-1,-1,poldrack-single-stim,151,316374,0.0-151.0,e1799639-a6e9-42e0-b55d-19049a5287e2,,500,500,fixation,,<div class = centerbox><div class = fixation>+</div></div>,none,500,test,,,,,,,,,,,763,71,poldrack-categorize,152,318888,0.0-152.0,e1799639-a6e9-42e0-b55d-19049a5287e2,,1500,250,stim,,"<div class = centerbox><div class = stroop-stim style = ""color:green"">RED</div></div>","66,71,82",1500,test,TRUE,71,500,incongruent,green,red,,,,,-1,-1,poldrack-single-stim,153,319647,0.0-153.0,e1799639-a6e9-42e0-b55d-19049a5287e2,,500,500,fixation,,<div class = centerbox><div class = fixation>+</div></div>,none,500,test,,,,,,,,,,,600,82,poldrack-categorize,154,322161,0.0-154.0,e1799639-a6e9-42e0-b55d-19049a5287e2,,1500,250,stim,,"<div class = centerbox><div class = stroop-stim style = ""color:red"">RED</div></div>","66,71,82",1500,test,TRUE,82,500,congruent,red,red,,,,,-1,-1,poldrack-single-stim,155,322921,0.0-155.0,e1799639-a6e9-42e0-b55d-19049a5287e2,,500,500,fixation,,<div class = centerbox><div class = fixation>+</div></div>,none,500,test,,,,,,,,,,,495,66,poldrack-categorize,156,325434,0.0-156.0,e1799639-a6e9-42e0-b55d-19049a5287e2,,1500,250,stim,,"<div class = centerbox><div class = stroop-stim style = ""color:blue"">BLUE</div></div>","66,71,82",1500,test,TRUE,66,500,congruent,blue,blue,,,,,-1,-1,poldrack-single-stim,157,326195,0.0-157.0,e1799639-a6e9-42e0-b55d-19049a5287e2,,500,500,fixation,,<div class = centerbox><div class = fixation>+</div></div>,none,500,test,,,,,,,,,,,588,82,poldrack-categorize,158,328708,0.0-158.0,e1799639-a6e9-42e0-b55d-19049a5287e2,,1500,250,stim,,"<div class = centerbox><div class = stroop-stim style = ""color:red"">BLUE</div></div>","66,71,82",1500,test,TRUE,82,500,incongruent,red,blue,,,,,-1,-1,poldrack-single-stim,159,329463,0.0-159.0,e1799639-a6e9-42e0-b55d-19049a5287e2,,500,500,fixation,,<div class = centerbox><div class = fixation>+</div></div>,none,500,test,,,,,,,,,,,650,71,poldrack-categorize,160,331970,0.0-160.0,e1799639-a6e9-42e0-b55d-19049a5287e2,,1500,250,stim,,"<div class = centerbox><div class = stroop-stim style = ""color:green"">GREEN</div></div>","66,71,82",1500,test,TRUE,71,500,congruent,green,green,,,,,-1,-1,poldrack-single-stim,161,332731,0.0-161.0,e1799639-a6e9-42e0-b55d-19049a5287e2,,500,500,fixation,,<div class = centerbox><div class = fixation>+</div></div>,none,500,test,,,,,,,,,,,597,82,poldrack-categorize,162,335244,0.0-162.0,e1799639-a6e9-42e0-b55d-19049a5287e2,,1500,250,stim,,"<div class = centerbox><div class = stroop-stim style = ""color:red"">RED</div></div>","66,71,82",1500,test,TRUE,82,500,congruent,red,red,,,,,-1,-1,poldrack-single-stim,163,336005,0.0-163.0,e1799639-a6e9-42e0-b55d-19049a5287e2,,500,500,fixation,,<div class = centerbox><div class = fixation>+</div></div>,none,500,test,,,,,,,,,,,586,66,poldrack-categorize,164,338518,0.0-164.0,e1799639-a6e9-42e0-b55d-19049a5287e2,,1500,250,stim,,"<div class = centerbox><div class = stroop-stim style = ""color:blue"">BLUE</div></div>","66,71,82",1500,test,TRUE,66,500,congruent,blue,blue,,,,,-1,-1,poldrack-single-stim,165,339273,0.0-165.0,e1799639-a6e9-42e0-b55d-19049a5287e2,,500,500,fixation,,<div class = centerbox><div class = fixation>+</div></div>,none,500,test,,,,,,,,,,,503,66,poldrack-categorize,166,341780,0.0-166.0,e1799639-a6e9-42e0-b55d-19049a5287e2,,1500,250,stim,,"<div class = centerbox><div class = stroop-stim style = ""color:blue"">BLUE</div></div>","66,71,82",1500,test,TRUE,66,500,congruent,blue,blue,,,,,-1,-1,poldrack-single-stim,167,342541,0.0-167.0,e1799639-a6e9-42e0-b55d-19049a5287e2,,500,500,fixation,,<div class = centerbox><div class = fixation>+</div></div>,none,500,test,,,,,,,,,,,593,82,poldrack-categorize,168,345054,0.0-168.0,e1799639-a6e9-42e0-b55d-19049a5287e2,,1500,250,stim,,"<div class = centerbox><div class = stroop-stim style = ""color:green"">RED</div></div>","66,71,82",1500,test,FALSE,71,500,incongruent,green,red,,,,,-1,-1,poldrack-single-stim,169,345815,0.0-169.0,e1799639-a6e9-42e0-b55d-19049a5287e2,,500,500,fixation,,<div class = centerbox><div class = fixation>+</div></div>,none,500,test,,,,,,,,,,,912,71,poldrack-categorize,170,348328,0.0-170.0,e1799639-a6e9-42e0-b55d-19049a5287e2,,1500,250,stim,,"<div class = centerbox><div class = stroop-stim style = ""color:green"">RED</div></div>","66,71,82",1500,test,TRUE,71,500,incongruent,green,red,,,,,-1,-1,poldrack-single-stim,171,349083,0.0-171.0,e1799639-a6e9-42e0-b55d-19049a5287e2,,500,500,fixation,,<div class = centerbox><div class = fixation>+</div></div>,none,500,test,,,,,,,,,,,538,71,poldrack-categorize,172,351596,0.0-172.0,e1799639-a6e9-42e0-b55d-19049a5287e2,,1500,250,stim,,"<div class = centerbox><div class = stroop-stim style = ""color:green"">GREEN</div></div>","66,71,82",1500,test,TRUE,71,500,congruent,green,green,,,,,-1,-1,poldrack-single-stim,173,352356,0.0-173.0,e1799639-a6e9-42e0-b55d-19049a5287e2,,500,500,fixation,,<div class = centerbox><div class = fixation>+</div></div>,none,500,test,,,,,,,,,,,489,66,poldrack-categorize,174,354870,0.0-174.0,e1799639-a6e9-42e0-b55d-19049a5287e2,,1500,250,stim,,"<div class = centerbox><div class = stroop-stim style = ""color:blue"">GREEN</div></div>","66,71,82",1500,test,TRUE,66,500,incongruent,blue,green,,,,,-1,-1,poldrack-single-stim,175,355630,0.0-175.0,e1799639-a6e9-42e0-b55d-19049a5287e2,,500,500,fixation,,<div class = centerbox><div class = fixation>+</div></div>,none,500,test,,,,,,,,,,,632,71,poldrack-categorize,176,358143,0.0-176.0,e1799639-a6e9-42e0-b55d-19049a5287e2,,1500,250,stim,,"<div class = centerbox><div class = stroop-stim style = ""color:green"">GREEN</div></div>","66,71,82",1500,test,TRUE,71,500,congruent,green,green,,,,,-1,-1,poldrack-single-stim,177,358904,0.0-177.0,e1799639-a6e9-42e0-b55d-19049a5287e2,,500,500,fixation,,<div class = centerbox><div class = fixation>+</div></div>,none,500,test,,,,,,,,,,,502,82,poldrack-categorize,178,361417,0.0-178.0,e1799639-a6e9-42e0-b55d-19049a5287e2,,1500,250,stim,,"<div class = centerbox><div class = stroop-stim style = ""color:red"">RED</div></div>","66,71,82",1500,test,TRUE,82,500,congruent,red,red,,,,,-1,-1,poldrack-single-stim,179,362178,0.0-179.0,e1799639-a6e9-42e0-b55d-19049a5287e2,,500,500,fixation,,<div class = centerbox><div class = fixation>+</div></div>,none,500,test,,,,,,,,,,,596,82,poldrack-categorize,180,364685,0.0-180.0,e1799639-a6e9-42e0-b55d-19049a5287e2,,1500,250,stim,,"<div class = centerbox><div class = stroop-stim style = ""color:red"">RED</div></div>","66,71,82",1500,test,TRUE,82,500,congruent,red,red,,,,,-1,-1,poldrack-single-stim,181,365446,0.0-181.0,e1799639-a6e9-42e0-b55d-19049a5287e2,,500,500,fixation,,<div class = centerbox><div class = fixation>+</div></div>,none,500,test,,,,,,,,,,,415,66,poldrack-categorize,182,367952,0.0-182.0,e1799639-a6e9-42e0-b55d-19049a5287e2,,1500,250,stim,,"<div class = centerbox><div class = stroop-stim style = ""color:blue"">RED</div></div>","66,71,82",1500,test,TRUE,66,500,incongruent,blue,red,,,,,-1,-1,poldrack-single-stim,183,368708,0.0-183.0,e1799639-a6e9-42e0-b55d-19049a5287e2,,500,500,fixation,,<div class = centerbox><div class = fixation>+</div></div>,none,500,test,,,,,,,,,,,963,71,poldrack-categorize,184,371215,0.0-184.0,e1799639-a6e9-42e0-b55d-19049a5287e2,,1500,250,stim,,"<div class = centerbox><div class = stroop-stim style = ""color:green"">RED</div></div>","66,71,82",1500,test,TRUE,71,500,incongruent,green,red,,,,,-1,-1,poldrack-single-stim,185,371976,0.0-185.0,e1799639-a6e9-42e0-b55d-19049a5287e2,,500,500,fixation,,<div class = centerbox><div class = fixation>+</div></div>,none,500,test,,,,,,,,,,,500,71,poldrack-categorize,186,374489,0.0-186.0,e1799639-a6e9-42e0-b55d-19049a5287e2,,1500,250,stim,,"<div class = centerbox><div class = stroop-stim style = ""color:green"">RED</div></div>","66,71,82",1500,test,TRUE,71,500,incongruent,green,red,,,,,-1,-1,poldrack-single-stim,187,375250,0.0-187.0,e1799639-a6e9-42e0-b55d-19049a5287e2,,500,500,fixation,,<div class = centerbox><div class = fixation>+</div></div>,none,500,test,,,,,,,,,,,467,71,poldrack-categorize,188,377763,0.0-188.0,e1799639-a6e9-42e0-b55d-19049a5287e2,,1500,250,stim,,"<div class = centerbox><div class = stroop-stim style = ""color:green"">GREEN</div></div>","66,71,82",1500,test,TRUE,71,500,congruent,green,green,,,,,-1,-1,poldrack-single-stim,189,378520,0.0-189.0,e1799639-a6e9-42e0-b55d-19049a5287e2,,500,500,fixation,,<div class = centerbox><div class = fixation>+</div></div>,none,500,test,,,,,,,,,,,461,71,poldrack-categorize,190,381031,0.0-190.0,e1799639-a6e9-42e0-b55d-19049a5287e2,,1500,250,stim,,"<div class = centerbox><div class = stroop-stim style = ""color:green"">GREEN</div></div>","66,71,82",1500,test,TRUE,71,500,congruent,green,green,,,,,-1,-1,poldrack-single-stim,191,381792,0.0-191.0,e1799639-a6e9-42e0-b55d-19049a5287e2,,500,500,fixation,,<div class = centerbox><div class = fixation>+</div></div>,none,500,test,,,,,,,,,,,484,71,poldrack-categorize,192,384305,0.0-192.0,e1799639-a6e9-42e0-b55d-19049a5287e2,,1500,250,stim,,"<div class = centerbox><div class = stroop-stim style = ""color:green"">RED</div></div>","66,71,82",1500,test,TRUE,71,500,incongruent,green,red,,,,,-1,-1,poldrack-single-stim,193,385065,0.0-193.0,e1799639-a6e9-42e0-b55d-19049a5287e2,,500,500,fixation,,<div class = centerbox><div class = fixation>+</div></div>,none,500,test,,,,,,,,,,,899,82,poldrack-categorize,194,387579,0.0-194.0,e1799639-a6e9-42e0-b55d-19049a5287e2,,1500,250,stim,,"<div class = centerbox><div class = stroop-stim style = ""color:red"">GREEN</div></div>","66,71,82",1500,test,TRUE,82,500,incongruent,red,green,,,,,-1,-1,poldrack-single-stim,195,388339,0.0-195.0,e1799639-a6e9-42e0-b55d-19049a5287e2,,500,500,fixation,,<div class = centerbox><div class = fixation>+</div></div>,none,500,test,,,,,,,,,,,737,71,poldrack-categorize,196,390852,0.0-196.0,e1799639-a6e9-42e0-b55d-19049a5287e2,,1500,250,stim,,"<div class = centerbox><div class = stroop-stim style = ""color:green"">GREEN</div></div>","66,71,82",1500,test,TRUE,71,500,congruent,green,green,,,,,-1,-1,poldrack-single-stim,197,391613,0.0-197.0,e1799639-a6e9-42e0-b55d-19049a5287e2,,500,500,fixation,,<div class = centerbox><div class = fixation>+</div></div>,none,500,test,,,,,,,,,,,598,82,poldrack-categorize,198,394126,0.0-198.0,e1799639-a6e9-42e0-b55d-19049a5287e2,,1500,250,stim,,"<div class = centerbox><div class = stroop-stim style = ""color:red"">GREEN</div></div>","66,71,82",1500,test,TRUE,82,500,incongruent,red,green,,,,,-1,-1,poldrack-single-stim,199,394881,0.0-199.0,e1799639-a6e9-42e0-b55d-19049a5287e2,,500,500,fixation,,<div class = centerbox><div class = fixation>+</div></div>,none,500,test,,,,,,,,,,,809,66,poldrack-categorize,200,397394,0.0-200.0,e1799639-a6e9-42e0-b55d-19049a5287e2,,1500,250,stim,,"<div class = centerbox><div class = stroop-stim style = ""color:blue"">GREEN</div></div>","66,71,82",1500,test,TRUE,66,500,incongruent,blue,green,,,,,-1,-1,poldrack-single-stim,201,398155,0.0-201.0,e1799639-a6e9-42e0-b55d-19049a5287e2,,500,500,fixation,,<div class = centerbox><div class = fixation>+</div></div>,none,500,test,,,,,,,,,,,528,82,poldrack-categorize,202,400668,0.0-202.0,e1799639-a6e9-42e0-b55d-19049a5287e2,,1500,250,stim,,"<div class = centerbox><div class = stroop-stim style = ""color:red"">RED</div></div>","66,71,82",1500,test,TRUE,82,500,congruent,red,red,,,,,-1,-1,poldrack-single-stim,203,401429,0.0-203.0,e1799639-a6e9-42e0-b55d-19049a5287e2,,500,500,fixation,,<div class = centerbox><div class = fixation>+</div></div>,none,500,test,,,,,,,,,,,517,66,poldrack-categorize,204,403942,0.0-204.0,e1799639-a6e9-42e0-b55d-19049a5287e2,,1500,250,stim,,"<div class = centerbox><div class = stroop-stim style = ""color:blue"">RED</div></div>","66,71,82",1500,test,TRUE,66,500,incongruent,blue,red,,,,,-1,-1,poldrack-single-stim,205,404703,0.0-205.0,e1799639-a6e9-42e0-b55d-19049a5287e2,,500,500,fixation,,<div class = centerbox><div class = fixation>+</div></div>,none,500,test,,,,,,,,,,,627,66,poldrack-categorize,206,407216,0.0-206.0,e1799639-a6e9-42e0-b55d-19049a5287e2,,1500,250,stim,,"<div class = centerbox><div class = stroop-stim style = ""color:blue"">GREEN</div></div>","66,71,82",1500,test,TRUE,66,500,incongruent,blue,green,,,,,-1,-1,poldrack-single-stim,207,407976,0.0-207.0,e1799639-a6e9-42e0-b55d-19049a5287e2,,500,500,fixation,,<div class = centerbox><div class = fixation>+</div></div>,none,500,test,,,,,,,,,,,481,66,poldrack-categorize,208,410486,0.0-208.0,e1799639-a6e9-42e0-b55d-19049a5287e2,,1500,250,stim,,"<div class = centerbox><div class = stroop-stim style = ""color:blue"">GREEN</div></div>","66,71,82",1500,test,TRUE,66,500,incongruent,blue,green,,,,,-1,-1,poldrack-single-stim,209,411244,0.0-209.0,e1799639-a6e9-42e0-b55d-19049a5287e2,,500,500,fixation,,<div class = centerbox><div class = fixation>+</div></div>,none,500,test,,,,,,,,,,,428,82,poldrack-categorize,210,413757,0.0-210.0,e1799639-a6e9-42e0-b55d-19049a5287e2,,1500,250,stim,,"<div class = centerbox><div class = stroop-stim style = ""color:red"">RED</div></div>","66,71,82",1500,test,TRUE,82,500,congruent,red,red,,,,,-1,-1,poldrack-single-stim,211,414518,0.0-211.0,e1799639-a6e9-42e0-b55d-19049a5287e2,,500,500,fixation,,<div class = centerbox><div class = fixation>+</div></div>,none,500,test,,,,,,,,,,,708,66,poldrack-categorize,212,417031,0.0-212.0,e1799639-a6e9-42e0-b55d-19049a5287e2,,1500,250,stim,,"<div class = centerbox><div class = stroop-stim style = ""color:blue"">RED</div></div>","66,71,82",1500,test,TRUE,66,500,incongruent,blue,red,,,,,-1,-1,poldrack-single-stim,213,417792,0.0-213.0,e1799639-a6e9-42e0-b55d-19049a5287e2,,500,500,fixation,,<div class = centerbox><div class = fixation>+</div></div>,none,500,test,,,,,,,,,,,866,71,poldrack-categorize,214,420305,0.0-214.0,e1799639-a6e9-42e0-b55d-19049a5287e2,,1500,250,stim,,"<div class = centerbox><div class = stroop-stim style = ""color:green"">RED</div></div>","66,71,82",1500,test,TRUE,71,500,incongruent,green,red,,,,,-1,-1,poldrack-single-stim,215,421065,0.0-215.0,e1799639-a6e9-42e0-b55d-19049a5287e2,,500,500,fixation,,<div class = centerbox><div class = fixation>+</div></div>,none,500,test,,,,,,,,,,,928,71,poldrack-categorize,216,423579,0.0-216.0,e1799639-a6e9-42e0-b55d-19049a5287e2,,1500,250,stim,,"<div class = centerbox><div class = stroop-stim style = ""color:green"">BLUE</div></div>","66,71,82",1500,test,TRUE,71,500,incongruent,green,blue,,,,,-1,-1,poldrack-single-stim,217,424339,0.0-217.0,e1799639-a6e9-42e0-b55d-19049a5287e2,,500,500,fixation,,<div class = centerbox><div class = fixation>+</div></div>,none,500,test,,,,,,,,,,,966,71,poldrack-categorize,218,426853,0.0-218.0,e1799639-a6e9-42e0-b55d-19049a5287e2,,1500,250,stim,,"<div class = centerbox><div class = stroop-stim style = ""color:green"">GREEN</div></div>","66,71,82",1500,test,TRUE,71,500,congruent,green,green,,,,,-1,-1,poldrack-single-stim,219,427614,0.0-219.0,e1799639-a6e9-42e0-b55d-19049a5287e2,,500,500,fixation,,<div class = centerbox><div class = fixation>+</div></div>,none,500,test,,,,,,,,,,,826,66,poldrack-categorize,220,430127,0.0-220.0,e1799639-a6e9-42e0-b55d-19049a5287e2,,1500,250,stim,,"<div class = centerbox><div class = stroop-stim style = ""color:blue"">RED</div></div>","66,71,82",1500,test,TRUE,66,500,incongruent,blue,red,,,,,-1,-1,poldrack-single-stim,221,430881,0.0-221.0,e1799639-a6e9-42e0-b55d-19049a5287e2,,500,500,fixation,,<div class = centerbox><div class = fixation>+</div></div>,none,500,test,,,,,,,,,,,606,66,poldrack-categorize,222,433395,0.0-222.0,e1799639-a6e9-42e0-b55d-19049a5287e2,,1500,250,stim,,"<div class = centerbox><div class = stroop-stim style = ""color:blue"">BLUE</div></div>","66,71,82",1500,test,TRUE,66,500,congruent,blue,blue,,,,,-1,-1,poldrack-single-stim,223,434155,0.0-223.0,e1799639-a6e9-42e0-b55d-19049a5287e2,,500,500,fixation,,<div class = centerbox><div class = fixation>+</div></div>,none,500,test,,,,,,,,,,,572,82,poldrack-categorize,224,436668,0.0-224.0,e1799639-a6e9-42e0-b55d-19049a5287e2,,1500,250,stim,,"<div class = centerbox><div class = stroop-stim style = ""color:red"">RED</div></div>","66,71,82",1500,test,TRUE,82,500,congruent,red,red,,,,,-1,-1,poldrack-single-stim,225,437429,0.0-225.0,e1799639-a6e9-42e0-b55d-19049a5287e2,,500,500,fixation,,<div class = centerbox><div class = fixation>+</div></div>,none,500,test,,,,,,,,,,,500,82,poldrack-categorize,226,439938,0.0-226.0,e1799639-a6e9-42e0-b55d-19049a5287e2,,1500,250,stim,,"<div class = centerbox><div class = stroop-stim style = ""color:red"">RED</div></div>","66,71,82",1500,test,TRUE,82,500,congruent,red,red,,,,,-1,-1,poldrack-single-stim,227,440697,0.0-227.0,e1799639-a6e9-42e0-b55d-19049a5287e2,,500,500,fixation,,<div class = centerbox><div class = fixation>+</div></div>,none,500,test,,,,,,,,,,,926,71,poldrack-categorize,228,443210,0.0-228.0,e1799639-a6e9-42e0-b55d-19049a5287e2,,1500,250,stim,,"<div class = centerbox><div class = stroop-stim style = ""color:green"">BLUE</div></div>","66,71,82",1500,test,TRUE,71,500,incongruent,green,blue,,,,,-1,-1,poldrack-single-stim,229,443971,0.0-229.0,e1799639-a6e9-42e0-b55d-19049a5287e2,,500,500,fixation,,<div class = centerbox><div class = fixation>+</div></div>,none,500,test,,,,,,,,,,,493,71,poldrack-categorize,230,446484,0.0-230.0,e1799639-a6e9-42e0-b55d-19049a5287e2,,1500,250,stim,,"<div class = centerbox><div class = stroop-stim style = ""color:green"">RED</div></div>","66,71,82",1500,test,TRUE,71,500,incongruent,green,red,,,,,-1,-1,poldrack-single-stim,231,447244,0.0-231.0,e1799639-a6e9-42e0-b55d-19049a5287e2,,500,500,fixation,,<div class = centerbox><div class = fixation>+</div></div>,none,500,test,,,,,,,,,,,819,82,poldrack-categorize,232,449758,0.0-232.0,e1799639-a6e9-42e0-b55d-19049a5287e2,,1500,250,stim,,"<div class = centerbox><div class = stroop-stim style = ""color:red"">BLUE</div></div>","66,71,82",1500,test,TRUE,82,500,incongruent,red,blue,,,,,-1,-1,poldrack-single-stim,233,450518,0.0-233.0,e1799639-a6e9-42e0-b55d-19049a5287e2,,500,500,fixation,,<div class = centerbox><div class = fixation>+</div></div>,none,500,test,,,,,,,,,,,698,71,poldrack-categorize,234,453032,0.0-234.0,e1799639-a6e9-42e0-b55d-19049a5287e2,,1500,250,stim,,"<div class = centerbox><div class = stroop-stim style = ""color:green"">GREEN</div></div>","66,71,82",1500,test,TRUE,71,500,congruent,green,green,,,,,-1,-1,poldrack-single-stim,235,453792,0.0-235.0,e1799639-a6e9-42e0-b55d-19049a5287e2,,500,500,fixation,,<div class = centerbox><div class = fixation>+</div></div>,none,500,test,,,,,,,,,,,815,66,poldrack-categorize,236,456301,0.0-236.0,e1799639-a6e9-42e0-b55d-19049a5287e2,,1500,250,stim,,"<div class = centerbox><div class = stroop-stim style = ""color:blue"">RED</div></div>","66,71,82",1500,test,TRUE,66,500,incongruent,blue,red,,,,,-1,-1,poldrack-single-stim,237,457060,0.0-237.0,e1799639-a6e9-42e0-b55d-19049a5287e2,,500,500,fixation,,<div class = centerbox><div class = fixation>+</div></div>,none,500,test,,,,,,,,,,,674,82,poldrack-categorize,238,459573,0.0-238.0,e1799639-a6e9-42e0-b55d-19049a5287e2,,1500,250,stim,,"<div class = centerbox><div class = stroop-stim style = ""color:red"">BLUE</div></div>","66,71,82",1500,test,TRUE,82,500,incongruent,red,blue,,,,,-1,-1,poldrack-single-stim,239,460334,0.0-239.0,e1799639-a6e9-42e0-b55d-19049a5287e2,,500,500,fixation,,<div class = centerbox><div class = fixation>+</div></div>,none,500,test,,,,,,,,,,,832,71,poldrack-categorize,240,462848,0.0-240.0,e1799639-a6e9-42e0-b55d-19049a5287e2,,1500,250,stim,,"<div class = centerbox><div class = stroop-stim style = ""color:green"">BLUE</div></div>","66,71,82",1500,test,TRUE,71,500,incongruent,green,blue,,,,,-1,-1,poldrack-single-stim,241,463608,0.0-241.0,e1799639-a6e9-42e0-b55d-19049a5287e2,,500,500,fixation,,<div class = centerbox><div class = fixation>+</div></div>,none,500,test,,,,,,,,,,,542,66,poldrack-categorize,242,466118,0.0-242.0,e1799639-a6e9-42e0-b55d-19049a5287e2,,1500,250,stim,,"<div class = centerbox><div class = stroop-stim style = ""color:blue"">BLUE</div></div>","66,71,82",1500,test,TRUE,66,500,congruent,blue,blue,,,,,-1,-1,poldrack-single-stim,243,466876,0.0-243.0,e1799639-a6e9-42e0-b55d-19049a5287e2,,500,500,fixation,,<div class = centerbox><div class = fixation>+</div></div>,none,500,test,,,,,,,,,,,833,66,poldrack-categorize,244,469389,0.0-244.0,e1799639-a6e9-42e0-b55d-19049a5287e2,,1500,250,stim,,"<div class = centerbox><div class = stroop-stim style = ""color:blue"">BLUE</div></div>","66,71,82",1500,test,TRUE,66,500,congruent,blue,blue,,,,,87983,,survey-text,245,557628,0.0-246.0,e1799639-a6e9-42e0-b55d-19049a5287e2,,,,post task questions,,,,,,,,,,,,"{""Q0"":""type the letter that corresponded with the color of the word."",""Q1"":""""}",,,,2515,13,poldrack-text,246,561144,0.0-247.0,e1799639-a6e9-42e0-b55d-19049a5287e2,<div class = centerbox><p class = center-block-text>Thanks for completing this task!</p><p class = center-block-text>Press <strong>enter</strong> to continue.</p></div>,2515,0,end,,,,,,,,,,,,,stroop,TRUE,,2948,13,poldrack-text,247,564128,0.0-248.0-0.0,e1799639-a6e9-42e0-b55d-19049a5287e2,<div class = centerbox><p class = center-block-text>Done with instructions. Press <strong>enter</strong> to continue.</p></div>,2948,0,instruction,,,,,,,,,,,,,,,,