"rt","key_press","trial_type","trial_index","time_elapsed","internal_node_id","subject","text","block_duration","timing_post_trial","trial_id","view_history","stimulus","possible_responses","stim_duration","exp_stage","correct","correct_response","feedback_duration","condition","stim_color","stim_word","responses","exp_id","credit_var"
"1058","13","text","0","1061","0.0-0.0","d2c36317-0b85-47d0-b2a0-c0122bd62677","","","","","","","","","","","","","","","","","",""
"8168","13","poldrack-text","1","10236","0.0-1.0-0.0","d2c36317-0b85-47d0-b2a0-c0122bd62677","<div class = centerbox><p class = center-block-text>Welcome to the experiment. This experiment will take about 8 minutes. Press <strong>enter</strong> to begin.</p></div>","8168","0","instruction","","","","","","","","","","","","","",""
"17809","","poldrack-instructions","2","28045","0.0-1.0-1.0","d2c36317-0b85-47d0-b2a0-c0122bd62677","","","","instruction","[{""page_index"":0,""viewing_time"":17808}]","","","","","","","","","","","","",""
"7258","13","poldrack-text","3","36306","0.0-2.0","d2c36317-0b85-47d0-b2a0-c0122bd62677","<div class = centerbox><p class = block-text>We will start with a few practice trials. Remember, press the key corresponding to the <strong>ink</strong> color of the word: ""r"" for words colored red, ""b"" for words colored blue, and ""g"" for words colored green.</p><p class = block-text>Press <strong>enter</strong> to begin practice.</p></div>","7258","1000","practice_intro","","","","","","","","","","","","","",""
"-1","-1","poldrack-single-stim","4","37813","0.0-3.0","d2c36317-0b85-47d0-b2a0-c0122bd62677","","500","500","fixation","","<div class = centerbox><div class = fixation>+</div></div>","none","500","practice","","","","","","","","",""
"1148","71","poldrack-categorize","5","40325","0.0-4.0","d2c36317-0b85-47d0-b2a0-c0122bd62677","","1500","250","stim","","<div class = centerbox><div class = stroop-stim style = ""color:green"">GREEN</div></div>","66,71,82","1500","practice","true","71","500","congruent","green","green","","",""
"-1","-1","poldrack-single-stim","6","41086","0.0-5.0","d2c36317-0b85-47d0-b2a0-c0122bd62677","","500","500","fixation","","<div class = centerbox><div class = fixation>+</div></div>","none","500","practice","","","","","","","","",""
"858","82","poldrack-categorize","7","43599","0.0-6.0","d2c36317-0b85-47d0-b2a0-c0122bd62677","","1500","250","stim","","<div class = centerbox><div class = stroop-stim style = ""color:red"">RED</div></div>","66,71,82","1500","practice","true","82","500","congruent","red","red","","",""
"-1","-1","poldrack-single-stim","8","44359","0.0-7.0","d2c36317-0b85-47d0-b2a0-c0122bd62677","","500","500","fixation","","<div class = centerbox><div class = fixation>+</div></div>","none","500","practice","","","","","","","","",""
"1052","66","poldrack-categorize","9","46867","0.0-8.0","d2c36317-0b85-47d0-b2a0-c0122bd62677","","1500","250","stim","","<div class = centerbox><div class = stroop-stim style = ""color:blue"">GREEN</div></div>","66,71,82","1500","practice","true","66","500","incongruent","blue","green","","",""
"-1","-1","poldrack-single-stim","10","47627","0.0-9.0","d2c36317-0b85-47d0-b2a0-c0122bd62677","","500","500","fixation","","<div class = centerbox><div class = fixation>+</div></div>","none","500","practice","","","","","","","","",""
"740","66","poldrack-categorize","11","50135","0.0-10.0","d2c36317-0b85-47d0-b2a0-c0122bd62677","","1500","250","stim","","<div class = centerbox><div class = stroop-stim style = ""color:blue"">BLUE</div></div>","66,71,82","1500","practice","true","66","500","congruent","blue","blue","","",""
"-1","-1","poldrack-single-stim","12","50895","0.0-11.0","d2c36317-0b85-47d0-b2a0-c0122bd62677","","500","500","fixation","","<div class = centerbox><div class = fixation>+</div></div>","none","500","practice","","","","","","","","",""
"1008","66","poldrack-categorize","13","53408","0.0-12.0","d2c36317-0b85-47d0-b2a0-c0122bd62677","","1500","250","stim","","<div class = centerbox><div class = stroop-stim style = ""color:blue"">GREEN</div></div>","66,71,82","1500","practice","true","66","500","incongruent","blue","green","","",""
"-1","-1","poldrack-single-stim","14","54169","0.0-13.0","d2c36317-0b85-47d0-b2a0-c0122bd62677","","500","500","fixation","","<div class = centerbox><div class = fixation>+</div></div>","none","500","practice","","","","","","","","",""
"854","82","poldrack-categorize","15","56682","0.0-14.0","d2c36317-0b85-47d0-b2a0-c0122bd62677","","1500","250","stim","","<div class = centerbox><div class = stroop-stim style = ""color:red"">GREEN</div></div>","66,71,82","1500","practice","true","82","500","incongruent","red","green","","",""
"-1","-1","poldrack-single-stim","16","57443","0.0-15.0","d2c36317-0b85-47d0-b2a0-c0122bd62677","","500","500","fixation","","<div class = centerbox><div class = fixation>+</div></div>","none","500","practice","","","","","","","","",""
"755","82","poldrack-categorize","17","59956","0.0-16.0","d2c36317-0b85-47d0-b2a0-c0122bd62677","","1500","250","stim","","<div class = centerbox><div class = stroop-stim style = ""color:red"">RED</div></div>","66,71,82","1500","practice","true","82","500","congruent","red","red","","",""
"-1","-1","poldrack-single-stim","18","60717","0.0-17.0","d2c36317-0b85-47d0-b2a0-c0122bd62677","","500","500","fixation","","<div class = centerbox><div class = fixation>+</div></div>","none","500","practice","","","","","","","","",""
"731","71","poldrack-categorize","19","63230","0.0-18.0","d2c36317-0b85-47d0-b2a0-c0122bd62677","","1500","250","stim","","<div class = centerbox><div class = stroop-stim style = ""color:green"">GREEN</div></div>","66,71,82","1500","practice","true","71","500","congruent","green","green","","",""
"-1","-1","poldrack-single-stim","20","63990","0.0-19.0","d2c36317-0b85-47d0-b2a0-c0122bd62677","","500","500","fixation","","<div class = centerbox><div class = fixation>+</div></div>","none","500","practice","","","","","","","","",""
"976","66","poldrack-categorize","21","66504","0.0-20.0","d2c36317-0b85-47d0-b2a0-c0122bd62677","","1500","250","stim","","<div class = centerbox><div class = stroop-stim style = ""color:blue"">RED</div></div>","66,71,82","1500","practice","true","66","500","incongruent","blue","red","","",""
"-1","-1","poldrack-single-stim","22","67258","0.0-21.0","d2c36317-0b85-47d0-b2a0-c0122bd62677","","500","500","fixation","","<div class = centerbox><div class = fixation>+</div></div>","none","500","practice","","","","","","","","",""
"548","66","poldrack-categorize","23","69772","0.0-22.0","d2c36317-0b85-47d0-b2a0-c0122bd62677","","1500","250","stim","","<div class = centerbox><div class = stroop-stim style = ""color:blue"">BLUE</div></div>","66,71,82","1500","practice","true","66","500","congruent","blue","blue","","",""
"-1","-1","poldrack-single-stim","24","70532","0.0-23.0","d2c36317-0b85-47d0-b2a0-c0122bd62677","","500","500","fixation","","<div class = centerbox><div class = fixation>+</div></div>","none","500","practice","","","","","","","","",""
"866","82","poldrack-categorize","25","73046","0.0-24.0","d2c36317-0b85-47d0-b2a0-c0122bd62677","","1500","250","stim","","<div class = centerbox><div class = stroop-stim style = ""color:red"">RED</div></div>","66,71,82","1500","practice","true","82","500","congruent","red","red","","",""
"-1","-1","poldrack-single-stim","26","73806","0.0-25.0","d2c36317-0b85-47d0-b2a0-c0122bd62677","","500","500","fixation","","<div class = centerbox><div class = fixation>+</div></div>","none","500","practice","","","","","","","","",""
"760","82","poldrack-categorize","27","76316","0.0-26.0","d2c36317-0b85-47d0-b2a0-c0122bd62677","","1500","250","stim","","<div class = centerbox><div class = stroop-stim style = ""color:red"">RED</div></div>","66,71,82","1500","practice","true","82","500","congruent","red","red","","",""
"-1","-1","poldrack-single-stim","28","77074","0.0-27.0","d2c36317-0b85-47d0-b2a0-c0122bd62677","","500","500","fixation","","<div class = centerbox><div class = fixation>+</div></div>","none","500","practice","","","","","","","","",""
"907","82","poldrack-categorize","29","79587","0.0-28.0","d2c36317-0b85-47d0-b2a0-c0122bd62677","","1500","250","stim","","<div class = centerbox><div class = stroop-stim style = ""color:red"">GREEN</div></div>","66,71,82","1500","practice","true","82","500","incongruent","red","green","","",""
"-1","-1","poldrack-single-stim","30","80348","0.0-29.0","d2c36317-0b85-47d0-b2a0-c0122bd62677","","500","500","fixation","","<div class = centerbox><div class = fixation>+</div></div>","none","500","practice","","","","","","","","",""
"913","71","poldrack-categorize","31","82861","0.0-30.0","d2c36317-0b85-47d0-b2a0-c0122bd62677","","1500","250","stim","","<div class = centerbox><div class = stroop-stim style = ""color:green"">RED</div></div>","66,71,82","1500","practice","true","71","500","incongruent","green","red","","",""
"-1","-1","poldrack-single-stim","32","83622","0.0-31.0","d2c36317-0b85-47d0-b2a0-c0122bd62677","","500","500","fixation","","<div class = centerbox><div class = fixation>+</div></div>","none","500","practice","","","","","","","","",""
"968","82","poldrack-categorize","33","86135","0.0-32.0","d2c36317-0b85-47d0-b2a0-c0122bd62677","","1500","250","stim","","<div class = centerbox><div class = stroop-stim style = ""color:red"">BLUE</div></div>","66,71,82","1500","practice","true","82","500","incongruent","red","blue","","",""
"-1","-1","poldrack-single-stim","34","86895","0.0-33.0","d2c36317-0b85-47d0-b2a0-c0122bd62677","","500","500","fixation","","<div class = centerbox><div class = fixation>+</div></div>","none","500","practice","","","","","","","","",""
"854","71","poldrack-categorize","35","89409","0.0-34.0","d2c36317-0b85-47d0-b2a0-c0122bd62677","","1500","250","stim","","<div class = centerbox><div class = stroop-stim style = ""color:green"">BLUE</div></div>","66,71,82","1500","practice","true","71","500","incongruent","green","blue","","",""
"-1","-1","poldrack-single-stim","36","90169","0.0-35.0","d2c36317-0b85-47d0-b2a0-c0122bd62677","","500","500","fixation","","<div class = centerbox><div class = fixation>+</div></div>","none","500","practice","","","","","","","","",""
"699","66","poldrack-categorize","37","92682","0.0-36.0","d2c36317-0b85-47d0-b2a0-c0122bd62677","","1500","250","stim","","<div class = centerbox><div class = stroop-stim style = ""color:blue"">BLUE</div></div>","66,71,82","1500","practice","true","66","500","congruent","blue","blue","","",""
"-1","-1","poldrack-single-stim","38","93443","0.0-37.0","d2c36317-0b85-47d0-b2a0-c0122bd62677","","500","500","fixation","","<div class = centerbox><div class = fixation>+</div></div>","none","500","practice","","","","","","","","",""
"937","71","poldrack-categorize","39","95956","0.0-38.0","d2c36317-0b85-47d0-b2a0-c0122bd62677","","1500","250","stim","","<div class = centerbox><div class = stroop-stim style = ""color:green"">BLUE</div></div>","66,71,82","1500","practice","true","71","500","incongruent","green","blue","","",""
"-1","-1","poldrack-single-stim","40","96717","0.0-39.0","d2c36317-0b85-47d0-b2a0-c0122bd62677","","500","500","fixation","","<div class = centerbox><div class = fixation>+</div></div>","none","500","practice","","","","","","","","",""
"815","82","poldrack-categorize","41","99230","0.0-40.0","d2c36317-0b85-47d0-b2a0-c0122bd62677","","1500","250","stim","","<div class = centerbox><div class = stroop-stim style = ""color:red"">BLUE</div></div>","66,71,82","1500","practice","true","82","500","incongruent","red","blue","","",""
"-1","-1","poldrack-single-stim","42","99985","0.0-41.0","d2c36317-0b85-47d0-b2a0-c0122bd62677","","500","500","fixation","","<div class = centerbox><div class = fixation>+</div></div>","none","500","practice","","","","","","","","",""
"803","71","poldrack-categorize","43","102498","0.0-42.0","d2c36317-0b85-47d0-b2a0-c0122bd62677","","1500","250","stim","","<div class = centerbox><div class = stroop-stim style = ""color:green"">GREEN</div></div>","66,71,82","1500","practice","true","71","500","congruent","green","green","","",""
"-1","-1","poldrack-single-stim","44","103259","0.0-43.0","d2c36317-0b85-47d0-b2a0-c0122bd62677","","500","500","fixation","","<div class = centerbox><div class = fixation>+</div></div>","none","500","practice","","","","","","","","",""
"1066","71","poldrack-categorize","45","105772","0.0-44.0","d2c36317-0b85-47d0-b2a0-c0122bd62677","","1500","250","stim","","<div class = centerbox><div class = stroop-stim style = ""color:green"">GREEN</div></div>","66,71,82","1500","practice","true","71","500","congruent","green","green","","",""
"-1","-1","poldrack-single-stim","46","106532","0.0-45.0","d2c36317-0b85-47d0-b2a0-c0122bd62677","","500","500","fixation","","<div class = centerbox><div class = fixation>+</div></div>","none","500","practice","","","","","","","","",""
"839","66","poldrack-categorize","47","109046","0.0-46.0","d2c36317-0b85-47d0-b2a0-c0122bd62677","","1500","250","stim","","<div class = centerbox><div class = stroop-stim style = ""color:blue"">RED</div></div>","66,71,82","1500","practice","true","66","500","incongruent","blue","red","","",""
"-1","-1","poldrack-single-stim","48","109806","0.0-47.0","d2c36317-0b85-47d0-b2a0-c0122bd62677","","500","500","fixation","","<div class = centerbox><div class = fixation>+</div></div>","none","500","practice","","","","","","","","",""
"911","71","poldrack-categorize","49","112319","0.0-48.0","d2c36317-0b85-47d0-b2a0-c0122bd62677","","1500","250","stim","","<div class = centerbox><div class = stroop-stim style = ""color:green"">RED</div></div>","66,71,82","1500","practice","true","71","500","incongruent","green","red","","",""
"-1","-1","poldrack-single-stim","50","113080","0.0-49.0","d2c36317-0b85-47d0-b2a0-c0122bd62677","","500","500","fixation","","<div class = centerbox><div class = fixation>+</div></div>","none","500","practice","","","","","","","","",""
"827","66","poldrack-categorize","51","115590","0.0-50.0","d2c36317-0b85-47d0-b2a0-c0122bd62677","","1500","250","stim","","<div class = centerbox><div class = stroop-stim style = ""color:blue"">BLUE</div></div>","66,71,82","1500","practice","true","66","500","congruent","blue","blue","","",""
"3001","13","poldrack-text","52","118844","0.0-52.0","d2c36317-0b85-47d0-b2a0-c0122bd62677","<div class = centerbox><p class = center-block-text>We will now start the test. Respond exactly like you did during practice.</p><p class = center-block-text>Press <strong>enter</strong> to begin the test.</p></div>","3001","1000","test_intro","","","","","","","","","","","","","",""
"-1","-1","poldrack-single-stim","53","120353","0.0-53.0","d2c36317-0b85-47d0-b2a0-c0122bd62677","","500","500","fixation","","<div class = centerbox><div class = fixation>+</div></div>","none","500","test","","","","","","","","",""
"638","82","poldrack-categorize","54","122861","0.0-54.0","d2c36317-0b85-47d0-b2a0-c0122bd62677","","1500","250","stim","","<div class = centerbox><div class = stroop-stim style = ""color:red"">RED</div></div>","66,71,82","1500","test","true","82","500","congruent","red","red","","",""
"-1","-1","poldrack-single-stim","55","123621","0.0-55.0","d2c36317-0b85-47d0-b2a0-c0122bd62677","","500","500","fixation","","<div class = centerbox><div class = fixation>+</div></div>","none","500","test","","","","","","","","",""
"741","82","poldrack-categorize","56","126134","0.0-56.0","d2c36317-0b85-47d0-b2a0-c0122bd62677","","1500","250","stim","","<div class = centerbox><div class = stroop-stim style = ""color:red"">GREEN</div></div>","66,71,82","1500","test","true","82","500","incongruent","red","green","","",""
"-1","-1","poldrack-single-stim","57","126894","0.0-57.0","d2c36317-0b85-47d0-b2a0-c0122bd62677","","500","500","fixation","","<div class = centerbox><div class = fixation>+</div></div>","none","500","test","","","","","","","","",""
"815","66","poldrack-categorize","58","129402","0.0-58.0","d2c36317-0b85-47d0-b2a0-c0122bd62677","","1500","250","stim","","<div class = centerbox><div class = stroop-stim style = ""color:blue"">GREEN</div></div>","66,71,82","1500","test","true","66","500","incongruent","blue","green","","",""
"-1","-1","poldrack-single-stim","59","130163","0.0-59.0","d2c36317-0b85-47d0-b2a0-c0122bd62677","","500","500","fixation","","<div class = centerbox><div class = fixation>+</div></div>","none","500","test","","","","","","","","",""
"1015","82","poldrack-categorize","60","132676","0.0-60.0","d2c36317-0b85-47d0-b2a0-c0122bd62677","","1500","250","stim","","<div class = centerbox><div class = stroop-stim style = ""color:red"">GREEN</div></div>","66,71,82","1500","test","true","82","500","incongruent","red","green","","",""
"-1","-1","poldrack-single-stim","61","133437","0.0-61.0","d2c36317-0b85-47d0-b2a0-c0122bd62677","","500","500","fixation","","<div class = centerbox><div class = fixation>+</div></div>","none","500","test","","","","","","","","",""
"645","71","poldrack-categorize","62","135950","0.0-62.0","d2c36317-0b85-47d0-b2a0-c0122bd62677","","1500","250","stim","","<div class = centerbox><div class = stroop-stim style = ""color:green"">GREEN</div></div>","66,71,82","1500","test","true","71","500","congruent","green","green","","",""
"-1","-1","poldrack-single-stim","63","136711","0.0-63.0","d2c36317-0b85-47d0-b2a0-c0122bd62677","","500","500","fixation","","<div class = centerbox><div class = fixation>+</div></div>","none","500","test","","","","","","","","",""
"979","82","poldrack-categorize","64","139224","0.0-64.0","d2c36317-0b85-47d0-b2a0-c0122bd62677","","1500","250","stim","","<div class = centerbox><div class = stroop-stim style = ""color:red"">BLUE</div></div>","66,71,82","1500","test","true","82","500","incongruent","red","blue","","",""
"-1","-1","poldrack-single-stim","65","139984","0.0-65.0","d2c36317-0b85-47d0-b2a0-c0122bd62677","","500","500","fixation","","<div class = centerbox><div class = fixation>+</div></div>","none","500","test","","","","","","","","",""
"497","82","poldrack-categorize","66","142492","0.0-66.0","d2c36317-0b85-47d0-b2a0-c0122bd62677","","1500","250","stim","","<div class = centerbox><div class = stroop-stim style = ""color:red"">BLUE</div></div>","66,71,82","1500","test","true","82","500","incongruent","red","blue","","",""
"-1","-1","poldrack-single-stim","67","143252","0.0-67.0","d2c36317-0b85-47d0-b2a0-c0122bd62677","","500","500","fixation","","<div class = centerbox><div class = fixation>+</div></div>","none","500","test","","","","","","","","",""
"733","71","poldrack-categorize","68","145766","0.0-68.0","d2c36317-0b85-47d0-b2a0-c0122bd62677","","1500","250","stim","","<div class = centerbox><div class = stroop-stim style = ""color:green"">RED</div></div>","66,71,82","1500","test","true","71","500","incongruent","green","red","","",""
"-1","-1","poldrack-single-stim","69","146520","0.0-69.0","d2c36317-0b85-47d0-b2a0-c0122bd62677","","500","500","fixation","","<div class = centerbox><div class = fixation>+</div></div>","none","500","test","","","","","","","","",""
"1089","71","poldrack-categorize","70","149034","0.0-70.0","d2c36317-0b85-47d0-b2a0-c0122bd62677","","1500","250","stim","","<div class = centerbox><div class = stroop-stim style = ""color:green"">RED</div></div>","66,71,82","1500","test","true","71","500","incongruent","green","red","","",""
"-1","-1","poldrack-single-stim","71","149794","0.0-71.0","d2c36317-0b85-47d0-b2a0-c0122bd62677","","500","500","fixation","","<div class = centerbox><div class = fixation>+</div></div>","none","500","test","","","","","","","","",""
"1183","71","poldrack-categorize","72","152308","0.0-72.0","d2c36317-0b85-47d0-b2a0-c0122bd62677","","1500","250","stim","","<div class = centerbox><div class = stroop-stim style = ""color:green"">RED</div></div>","66,71,82","1500","test","true","71","500","incongruent","green","red","","",""
"-1","-1","poldrack-single-stim","73","153068","0.0-73.0","d2c36317-0b85-47d0-b2a0-c0122bd62677","","500","500","fixation","","<div class = centerbox><div class = fixation>+</div></div>","none","500","test","","","","","","","","",""
"989","66","poldrack-categorize","74","155578","0.0-74.0","d2c36317-0b85-47d0-b2a0-c0122bd62677","","1500","250","stim","","<div class = centerbox><div class = stroop-stim style = ""color:blue"">BLUE</div></div>","66,71,82","1500","test","true","66","500","congruent","blue","blue","","",""
"-1","-1","poldrack-single-stim","75","156335","0.0-75.0","d2c36317-0b85-47d0-b2a0-c0122bd62677","","500","500","fixation","","<div class = centerbox><div class = fixation>+</div></div>","none","500","test","","","","","","","","",""
"1209","66","poldrack-categorize","76","158849","0.0-76.0","d2c36317-0b85-47d0-b2a0-c0122bd62677","","1500","250","stim","","<div class = centerbox><div class = stroop-stim style = ""color:blue"">BLUE</div></div>","66,71,82","1500","test","true","66","500","congruent","blue","blue","","",""
"-1","-1","poldrack-single-stim","77","159610","0.0-77.0","d2c36317-0b85-47d0-b2a0-c0122bd62677","","500","500","fixation","","<div class = centerbox><div class = fixation>+</div></div>","none","500","test","","","","","","","","",""
"838","82","poldrack-categorize","78","162123","0.0-78.0","d2c36317-0b85-47d0-b2a0-c0122bd62677","","1500","250","stim","","<div class = centerbox><div class = stroop-stim style = ""color:red"">GREEN</div></div>","66,71,82","1500","test","true","82","500","incongruent","red","green","","",""
"-1","-1","poldrack-single-stim","79","162884","0.0-79.0","d2c36317-0b85-47d0-b2a0-c0122bd62677","","500","500","fixation","","<div class = centerbox><div class = fixation>+</div></div>","none","500","test","","","","","","","","",""
"1268","66","poldrack-categorize","80","165397","0.0-80.0","d2c36317-0b85-47d0-b2a0-c0122bd62677","","1500","250","stim","","<div class = centerbox><div class = stroop-stim style = ""color:blue"">GREEN</div></div>","66,71,82","1500","test","true","66","500","incongruent","blue","green","","",""
"-1","-1","poldrack-single-stim","81","166157","0.0-81.0","d2c36317-0b85-47d0-b2a0-c0122bd62677","","500","500","fixation","","<div class = centerbox><div class = fixation>+</div></div>","none","500","test","","","","","","","","",""
"858","82","poldrack-categorize","82","168667","0.0-82.0","d2c36317-0b85-47d0-b2a0-c0122bd62677","","1500","250","stim","","<div class = centerbox><div class = stroop-stim style = ""color:red"">RED</div></div>","66,71,82","1500","test","true","82","500","congruent","red","red","","",""
"-1","-1","poldrack-single-stim","83","169425","0.0-83.0","d2c36317-0b85-47d0-b2a0-c0122bd62677","","500","500","fixation","","<div class = centerbox><div class = fixation>+</div></div>","none","500","test","","","","","","","","",""
"670","82","poldrack-categorize","84","171939","0.0-84.0","d2c36317-0b85-47d0-b2a0-c0122bd62677","","1500","250","stim","","<div class = centerbox><div class = stroop-stim style = ""color:red"">RED</div></div>","66,71,82","1500","test","true","82","500","congruent","red","red","","",""
"-1","-1","poldrack-single-stim","85","172699","0.0-85.0","d2c36317-0b85-47d0-b2a0-c0122bd62677","","500","500","fixation","","<div class = centerbox><div class = fixation>+</div></div>","none","500","test","","","","","","","","",""
"756","66","poldrack-categorize","86","175212","0.0-86.0","d2c36317-0b85-47d0-b2a0-c0122bd62677","","1500","250","stim","","<div class = centerbox><div class = stroop-stim style = ""color:blue"">GREEN</div></div>","66,71,82","1500","test","true","66","500","incongruent","blue","green","","",""
"-1","-1","poldrack-single-stim","87","175973","0.0-87.0","d2c36317-0b85-47d0-b2a0-c0122bd62677","","500","500","fixation","","<div class = centerbox><div class = fixation>+</div></div>","none","500","test","","","","","","","","",""
"-1","-1","poldrack-categorize","88","178480","0.0-88.0","d2c36317-0b85-47d0-b2a0-c0122bd62677","","1500","250","stim","","<div class = centerbox><div class = stroop-stim style = ""color:red"">BLUE</div></div>","66,71,82","1500","test","false","82","500","incongruent","red","blue","","",""
"-1","-1","poldrack-single-stim","89","179241","0.0-89.0","d2c36317-0b85-47d0-b2a0-c0122bd62677","","500","500","fixation","","<div class = centerbox><div class = fixation>+</div></div>","none","500","test","","","","","","","","",""
"933","66","poldrack-categorize","90","181751","0.0-90.0","d2c36317-0b85-47d0-b2a0-c0122bd62677","","1500","250","stim","","<div class = centerbox><div class = stroop-stim style = ""color:blue"">RED</div></div>","66,71,82","1500","test","true","66","500","incongruent","blue","red","","",""
"-1","-1","poldrack-single-stim","91","182511","0.0-91.0","d2c36317-0b85-47d0-b2a0-c0122bd62677","","500","500","fixation","","<div class = centerbox><div class = fixation>+</div></div>","none","500","test","","","","","","","","",""
"831","66","poldrack-categorize","92","185022","0.0-92.0","d2c36317-0b85-47d0-b2a0-c0122bd62677","","1500","250","stim","","<div class = centerbox><div class = stroop-stim style = ""color:blue"">GREEN</div></div>","66,71,82","1500","test","true","66","500","incongruent","blue","green","","",""
"-1","-1","poldrack-single-stim","93","185783","0.0-93.0","d2c36317-0b85-47d0-b2a0-c0122bd62677","","500","500","fixation","","<div class = centerbox><div class = fixation>+</div></div>","none","500","test","","","","","","","","",""
"867","71","poldrack-categorize","94","188290","0.0-94.0","d2c36317-0b85-47d0-b2a0-c0122bd62677","","1500","250","stim","","<div class = centerbox><div class = stroop-stim style = ""color:green"">BLUE</div></div>","66,71,82","1500","test","true","71","500","incongruent","green","blue","","",""
"-1","-1","poldrack-single-stim","95","189051","0.0-95.0","d2c36317-0b85-47d0-b2a0-c0122bd62677","","500","500","fixation","","<div class = centerbox><div class = fixation>+</div></div>","none","500","test","","","","","","","","",""
"796","82","poldrack-categorize","96","191564","0.0-96.0","d2c36317-0b85-47d0-b2a0-c0122bd62677","","1500","250","stim","","<div class = centerbox><div class = stroop-stim style = ""color:red"">GREEN</div></div>","66,71,82","1500","test","true","82","500","incongruent","red","green","","",""
"-1","-1","poldrack-single-stim","97","192325","0.0-97.0","d2c36317-0b85-47d0-b2a0-c0122bd62677","","500","500","fixation","","<div class = centerbox><div class = fixation>+</div></div>","none","500","test","","","","","","","","",""
"898","71","poldrack-categorize","98","194835","0.0-98.0","d2c36317-0b85-47d0-b2a0-c0122bd62677","","1500","250","stim","","<div class = centerbox><div class = stroop-stim style = ""color:green"">GREEN</div></div>","66,71,82","1500","test","true","71","500","congruent","green","green","","",""
"-1","-1","poldrack-single-stim","99","195593","0.0-99.0","d2c36317-0b85-47d0-b2a0-c0122bd62677","","500","500","fixation","","<div class = centerbox><div class = fixation>+</div></div>","none","500","test","","","","","","","","",""
"998","82","poldrack-categorize","100","198106","0.0-100.0","d2c36317-0b85-47d0-b2a0-c0122bd62677","","1500","250","stim","","<div class = centerbox><div class = stroop-stim style = ""color:red"">GREEN</div></div>","66,71,82","1500","test","true","82","500","incongruent","red","green","","",""
"-1","-1","poldrack-single-stim","101","198866","0.0-101.0","d2c36317-0b85-47d0-b2a0-c0122bd62677","","500","500","fixation","","<div class = centerbox><div class = fixation>+</div></div>","none","500","test","","","","","","","","",""
"787","66","poldrack-categorize","102","201378","0.0-102.0","d2c36317-0b85-47d0-b2a0-c0122bd62677","","1500","250","stim","","<div class = centerbox><div class = stroop-stim style = ""color:blue"">RED</div></div>","66,71,82","1500","test","true","66","500","incongruent","blue","red","","",""
"-1","-1","poldrack-single-stim","103","202134","0.0-103.0","d2c36317-0b85-47d0-b2a0-c0122bd62677","","500","500","fixation","","<div class = centerbox><div class = fixation>+</div></div>","none","500","test","","","","","","","","",""
"607","71","poldrack-categorize","104","204648","0.0-104.0","d2c36317-0b85-47d0-b2a0-c0122bd62677","","1500","250","stim","","<div class = centerbox><div class = stroop-stim style = ""color:green"">GREEN</div></div>","66,71,82","1500","test","true","71","500","congruent","green","green","","",""
"-1","-1","poldrack-single-stim","105","205402","0.0-105.0","d2c36317-0b85-47d0-b2a0-c0122bd62677","","500","500","fixation","","<div class = centerbox><div class = fixation>+</div></div>","none","500","test","","","","","","","","",""
"747","66","poldrack-categorize","106","207916","0.0-106.0","d2c36317-0b85-47d0-b2a0-c0122bd62677","","1500","250","stim","","<div class = centerbox><div class = stroop-stim style = ""color:blue"">BLUE</div></div>","66,71,82","1500","test","true","66","500","congruent","blue","blue","","",""
"-1","-1","poldrack-single-stim","107","208673","0.0-107.0","d2c36317-0b85-47d0-b2a0-c0122bd62677","","500","500","fixation","","<div class = centerbox><div class = fixation>+</div></div>","none","500","test","","","","","","","","",""
"711","66","poldrack-categorize","108","211184","0.0-108.0","d2c36317-0b85-47d0-b2a0-c0122bd62677","","1500","250","stim","","<div class = centerbox><div class = stroop-stim style = ""color:blue"">BLUE</div></div>","66,71,82","1500","test","true","66","500","congruent","blue","blue","","",""
"-1","-1","poldrack-single-stim","109","211944","0.0-109.0","d2c36317-0b85-47d0-b2a0-c0122bd62677","","500","500","fixation","","<div class = centerbox><div class = fixation>+</div></div>","none","500","test","","","","","","","","",""
"532","66","poldrack-categorize","110","214457","0.0-110.0","d2c36317-0b85-47d0-b2a0-c0122bd62677","","1500","250","stim","","<div class = centerbox><div class = stroop-stim style = ""color:blue"">BLUE</div></div>","66,71,82","1500","test","true","66","500","congruent","blue","blue","","",""
"-1","-1","poldrack-single-stim","111","215218","0.0-111.0","d2c36317-0b85-47d0-b2a0-c0122bd62677","","500","500","fixation","","<div class = centerbox><div class = fixation>+</div></div>","none","500","test","","","","","","","","",""
"658","66","poldrack-categorize","112","217731","0.0-112.0","d2c36317-0b85-47d0-b2a0-c0122bd62677","","1500","250","stim","","<div class = centerbox><div class = stroop-stim style = ""color:blue"">BLUE</div></div>","66,71,82","1500","test","true","66","500","congruent","blue","blue","","",""
"-1","-1","poldrack-single-stim","113","218490","0.0-113.0","d2c36317-0b85-47d0-b2a0-c0122bd62677","","500","500","fixation","","<div class = centerbox><div class = fixation>+</div></div>","none","500","test","","","","","","","","",""
"1030","82","poldrack-categorize","114","220996","0.0-114.0","d2c36317-0b85-47d0-b2a0-c0122bd62677","","1500","250","stim","","<div class = centerbox><div class = stroop-stim style = ""color:red"">BLUE</div></div>","66,71,82","1500","test","true","82","500","incongruent","red","blue","","",""
"-1","-1","poldrack-single-stim","115","221754","0.0-115.0","d2c36317-0b85-47d0-b2a0-c0122bd62677","","500","500","fixation","","<div class = centerbox><div class = fixation>+</div></div>","none","500","test","","","","","","","","",""
"1426","71","poldrack-categorize","116","224267","0.0-116.0","d2c36317-0b85-47d0-b2a0-c0122bd62677","","1500","250","stim","","<div class = centerbox><div class = stroop-stim style = ""color:green"">GREEN</div></div>","66,71,82","1500","test","true","71","500","congruent","green","green","","",""
"-1","-1","poldrack-single-stim","117","225028","0.0-117.0","d2c36317-0b85-47d0-b2a0-c0122bd62677","","500","500","fixation","","<div class = centerbox><div class = fixation>+</div></div>","none","500","test","","","","","","","","",""
"1145","82","poldrack-categorize","118","227541","0.0-118.0","d2c36317-0b85-47d0-b2a0-c0122bd62677","","1500","250","stim","","<div class = centerbox><div class = stroop-stim style = ""color:red"">RED</div></div>","66,71,82","1500","test","true","82","500","congruent","red","red","","",""
"-1","-1","poldrack-single-stim","119","228302","0.0-119.0","d2c36317-0b85-47d0-b2a0-c0122bd62677","","500","500","fixation","","<div class = centerbox><div class = fixation>+</div></div>","none","500","test","","","","","","","","",""
"870","66","poldrack-categorize","120","230810","0.0-120.0","d2c36317-0b85-47d0-b2a0-c0122bd62677","","1500","250","stim","","<div class = centerbox><div class = stroop-stim style = ""color:blue"">GREEN</div></div>","66,71,82","1500","test","true","66","500","incongruent","blue","green","","",""
"-1","-1","poldrack-single-stim","121","231570","0.0-121.0","d2c36317-0b85-47d0-b2a0-c0122bd62677","","500","500","fixation","","<div class = centerbox><div class = fixation>+</div></div>","none","500","test","","","","","","","","",""
"1018","71","poldrack-categorize","122","234083","0.0-122.0","d2c36317-0b85-47d0-b2a0-c0122bd62677","","1500","250","stim","","<div class = centerbox><div class = stroop-stim style = ""color:green"">BLUE</div></div>","66,71,82","1500","test","true","71","500","incongruent","green","blue","","",""
"-1","-1","poldrack-single-stim","123","234843","0.0-123.0","d2c36317-0b85-47d0-b2a0-c0122bd62677","","500","500","fixation","","<div class = centerbox><div class = fixation>+</div></div>","none","500","test","","","","","","","","",""
"1097","66","poldrack-categorize","124","237357","0.0-124.0","d2c36317-0b85-47d0-b2a0-c0122bd62677","","1500","250","stim","","<div class = centerbox><div class = stroop-stim style = ""color:blue"">BLUE</div></div>","66,71,82","1500","test","true","66","500","congruent","blue","blue","","",""
"-1","-1","poldrack-single-stim","125","238117","0.0-125.0","d2c36317-0b85-47d0-b2a0-c0122bd62677","","500","500","fixation","","<div class = centerbox><div class = fixation>+</div></div>","none","500","test","","","","","","","","",""
"654","66","poldrack-categorize","126","240630","0.0-126.0","d2c36317-0b85-47d0-b2a0-c0122bd62677","","1500","250","stim","","<div class = centerbox><div class = stroop-stim style = ""color:blue"">BLUE</div></div>","66,71,82","1500","test","true","66","500","congruent","blue","blue","","",""
"-1","-1","poldrack-single-stim","127","241391","0.0-127.0","d2c36317-0b85-47d0-b2a0-c0122bd62677","","500","500","fixation","","<div class = centerbox><div class = fixation>+</div></div>","none","500","test","","","","","","","","",""
"1171","82","poldrack-categorize","128","243904","0.0-128.0","d2c36317-0b85-47d0-b2a0-c0122bd62677","","1500","250","stim","","<div class = centerbox><div class = stroop-stim style = ""color:red"">BLUE</div></div>","66,71,82","1500","test","true","82","500","incongruent","red","blue","","",""
"-1","-1","poldrack-single-stim","129","244665","0.0-129.0","d2c36317-0b85-47d0-b2a0-c0122bd62677","","500","500","fixation","","<div class = centerbox><div class = fixation>+</div></div>","none","500","test","","","","","","","","",""
"593","66","poldrack-categorize","130","247178","0.0-130.0","d2c36317-0b85-47d0-b2a0-c0122bd62677","","1500","250","stim","","<div class = centerbox><div class = stroop-stim style = ""color:blue"">BLUE</div></div>","66,71,82","1500","test","true","66","500","congruent","blue","blue","","",""
"-1","-1","poldrack-single-stim","131","247937","0.0-131.0","d2c36317-0b85-47d0-b2a0-c0122bd62677","","500","500","fixation","","<div class = centerbox><div class = fixation>+</div></div>","none","500","test","","","","","","","","",""
"1033","82","poldrack-categorize","132","250452","0.0-132.0","d2c36317-0b85-47d0-b2a0-c0122bd62677","","1500","250","stim","","<div class = centerbox><div class = stroop-stim style = ""color:red"">GREEN</div></div>","66,71,82","1500","test","true","82","500","incongruent","red","green","","",""
"-1","-1","poldrack-single-stim","133","251208","0.0-133.0","d2c36317-0b85-47d0-b2a0-c0122bd62677","","500","500","fixation","","<div class = centerbox><div class = fixation>+</div></div>","none","500","test","","","","","","","","",""
"1130","71","poldrack-categorize","134","253720","0.0-134.0","d2c36317-0b85-47d0-b2a0-c0122bd62677","","1500","250","stim","","<div class = centerbox><div class = stroop-stim style = ""color:green"">BLUE</div></div>","66,71,82","1500","test","true","71","500","incongruent","green","blue","","",""
"-1","-1","poldrack-single-stim","135","254480","0.0-135.0","d2c36317-0b85-47d0-b2a0-c0122bd62677","","500","500","fixation","","<div class = centerbox><div class = fixation>+</div></div>","none","500","test","","","","","","","","",""
"626","71","poldrack-categorize","136","256994","0.0-136.0","d2c36317-0b85-47d0-b2a0-c0122bd62677","","1500","250","stim","","<div class = centerbox><div class = stroop-stim style = ""color:green"">GREEN</div></div>","66,71,82","1500","test","true","71","500","congruent","green","green","","",""
"-1","-1","poldrack-single-stim","137","257754","0.0-137.0","d2c36317-0b85-47d0-b2a0-c0122bd62677","","500","500","fixation","","<div class = centerbox><div class = fixation>+</div></div>","none","500","test","","","","","","","","",""
"1408","82","poldrack-categorize","138","260267","0.0-138.0","d2c36317-0b85-47d0-b2a0-c0122bd62677","","1500","250","stim","","<div class = centerbox><div class = stroop-stim style = ""color:green"">RED</div></div>","66,71,82","1500","test","false","71","500","incongruent","green","red","","",""
"-1","-1","poldrack-single-stim","139","261028","0.0-139.0","d2c36317-0b85-47d0-b2a0-c0122bd62677","","500","500","fixation","","<div class = centerbox><div class = fixation>+</div></div>","none","500","test","","","","","","","","",""
"965","82","poldrack-categorize","140","263541","0.0-140.0","d2c36317-0b85-47d0-b2a0-c0122bd62677","","1500","250","stim","","<div class = centerbox><div class = stroop-stim style = ""color:red"">RED</div></div>","66,71,82","1500","test","true","82","500","congruent","red","red","","",""
"-1","-1","poldrack-single-stim","141","264302","0.0-141.0","d2c36317-0b85-47d0-b2a0-c0122bd62677","","500","500","fixation","","<div class = centerbox><div class = fixation>+</div></div>","none","500","test","","","","","","","","",""
"499","66","poldrack-categorize","142","266813","0.0-142.0","d2c36317-0b85-47d0-b2a0-c0122bd62677","","1500","250","stim","","<div class = centerbox><div class = stroop-stim style = ""color:blue"">BLUE</div></div>","66,71,82","1500","test","true","66","500","congruent","blue","blue","","",""
"-1","-1","poldrack-single-stim","143","267570","0.0-143.0","d2c36317-0b85-47d0-b2a0-c0122bd62677","","500","500","fixation","","<div class = centerbox><div class = fixation>+</div></div>","none","500","test","","","","","","","","",""
"799","66","poldrack-categorize","144","270083","0.0-144.0","d2c36317-0b85-47d0-b2a0-c0122bd62677","","1500","250","stim","","<div class = centerbox><div class = stroop-stim style = ""color:blue"">RED</div></div>","66,71,82","1500","test","true","66","500","incongruent","blue","red","","",""
"-1","-1","poldrack-single-stim","145","270844","0.0-145.0","d2c36317-0b85-47d0-b2a0-c0122bd62677","","500","500","fixation","","<div class = centerbox><div class = fixation>+</div></div>","none","500","test","","","","","","","","",""
"845","82","poldrack-categorize","146","273357","0.0-146.0","d2c36317-0b85-47d0-b2a0-c0122bd62677","","1500","250","stim","","<div class = centerbox><div class = stroop-stim style = ""color:red"">RED</div></div>","66,71,82","1500","test","true","82","500","congruent","red","red","","",""
"-1","-1","poldrack-single-stim","147","274117","0.0-147.0","d2c36317-0b85-47d0-b2a0-c0122bd62677","","500","500","fixation","","<div class = centerbox><div class = fixation>+</div></div>","none","500","test","","","","","","","","",""
"1075","71","poldrack-categorize","148","276631","0.0-148.0","d2c36317-0b85-47d0-b2a0-c0122bd62677","","1500","250","stim","","<div class = centerbox><div class = stroop-stim style = ""color:green"">GREEN</div></div>","66,71,82","1500","test","true","71","500","congruent","green","green","","",""
"-1","-1","poldrack-single-stim","149","277391","0.0-149.0","d2c36317-0b85-47d0-b2a0-c0122bd62677","","500","500","fixation","","<div class = centerbox><div class = fixation>+</div></div>","none","500","test","","","","","","","","",""
"770","82","poldrack-categorize","150","279904","0.0-150.0","d2c36317-0b85-47d0-b2a0-c0122bd62677","","1500","250","stim","","<div class = centerbox><div class = stroop-stim style = ""color:red"">GREEN</div></div>","66,71,82","1500","test","true","82","500","incongruent","red","green","","",""
"-1","-1","poldrack-single-stim","151","280665","0.0-151.0","d2c36317-0b85-47d0-b2a0-c0122bd62677","","500","500","fixation","","<div class = centerbox><div class = fixation>+</div></div>","none","500","test","","","","","","","","",""
"728","66","poldrack-categorize","152","283178","0.0-152.0","d2c36317-0b85-47d0-b2a0-c0122bd62677","","1500","250","stim","","<div class = centerbox><div class = stroop-stim style = ""color:blue"">BLUE</div></div>","66,71,82","1500","test","true","66","500","congruent","blue","blue","","",""
"-1","-1","poldrack-single-stim","153","283939","0.0-153.0","d2c36317-0b85-47d0-b2a0-c0122bd62677","","500","500","fixation","","<div class = centerbox><div class = fixation>+</div></div>","none","500","test","","","","","","","","",""
"965","71","poldrack-categorize","154","286452","0.0-154.0","d2c36317-0b85-47d0-b2a0-c0122bd62677","","1500","250","stim","","<div class = centerbox><div class = stroop-stim style = ""color:green"">RED</div></div>","66,71,82","1500","test","true","71","500","incongruent","green","red","","",""
"-1","-1","poldrack-single-stim","155","287213","0.0-155.0","d2c36317-0b85-47d0-b2a0-c0122bd62677","","500","500","fixation","","<div class = centerbox><div class = fixation>+</div></div>","none","500","test","","","","","","","","",""
"800","71","poldrack-categorize","156","289720","0.0-156.0","d2c36317-0b85-47d0-b2a0-c0122bd62677","","1500","250","stim","","<div class = centerbox><div class = stroop-stim style = ""color:green"">GREEN</div></div>","66,71,82","1500","test","true","71","500","congruent","green","green","","",""
"-1","-1","poldrack-single-stim","157","290481","0.0-157.0","d2c36317-0b85-47d0-b2a0-c0122bd62677","","500","500","fixation","","<div class = centerbox><div class = fixation>+</div></div>","none","500","test","","","","","","","","",""
"542","66","poldrack-categorize","158","292994","0.0-158.0","d2c36317-0b85-47d0-b2a0-c0122bd62677","","1500","250","stim","","<div class = centerbox><div class = stroop-stim style = ""color:blue"">BLUE</div></div>","66,71,82","1500","test","true","66","500","congruent","blue","blue","","",""
"-1","-1","poldrack-single-stim","159","293754","0.0-159.0","d2c36317-0b85-47d0-b2a0-c0122bd62677","","500","500","fixation","","<div class = centerbox><div class = fixation>+</div></div>","none","500","test","","","","","","","","",""
"637","71","poldrack-categorize","160","296268","0.0-160.0","d2c36317-0b85-47d0-b2a0-c0122bd62677","","1500","250","stim","","<div class = centerbox><div class = stroop-stim style = ""color:green"">GREEN</div></div>","66,71,82","1500","test","true","71","500","congruent","green","green","","",""
"-1","-1","poldrack-single-stim","161","297028","0.0-161.0","d2c36317-0b85-47d0-b2a0-c0122bd62677","","500","500","fixation","","<div class = centerbox><div class = fixation>+</div></div>","none","500","test","","","","","","","","",""
"1051","66","poldrack-categorize","162","299541","0.0-162.0","d2c36317-0b85-47d0-b2a0-c0122bd62677","","1500","250","stim","","<div class = centerbox><div class = stroop-stim style = ""color:blue"">GREEN</div></div>","66,71,82","1500","test","true","66","500","incongruent","blue","green","","",""
"-1","-1","poldrack-single-stim","163","300299","0.0-163.0","d2c36317-0b85-47d0-b2a0-c0122bd62677","","500","500","fixation","","<div class = centerbox><div class = fixation>+</div></div>","none","500","test","","","","","","","","",""
"647","66","poldrack-categorize","164","302809","0.0-164.0","d2c36317-0b85-47d0-b2a0-c0122bd62677","","1500","250","stim","","<div class = centerbox><div class = stroop-stim style = ""color:blue"">BLUE</div></div>","66,71,82","1500","test","true","66","500","congruent","blue","blue","","",""
"-1","-1","poldrack-single-stim","165","303570","0.0-165.0","d2c36317-0b85-47d0-b2a0-c0122bd62677","","500","500","fixation","","<div class = centerbox><div class = fixation>+</div></div>","none","500","test","","","","","","","","",""
"725","82","poldrack-categorize","166","306083","0.0-166.0","d2c36317-0b85-47d0-b2a0-c0122bd62677","","1500","250","stim","","<div class = centerbox><div class = stroop-stim style = ""color:red"">BLUE</div></div>","66,71,82","1500","test","true","82","500","incongruent","red","blue","","",""
"-1","-1","poldrack-single-stim","167","306844","0.0-167.0","d2c36317-0b85-47d0-b2a0-c0122bd62677","","500","500","fixation","","<div class = centerbox><div class = fixation>+</div></div>","none","500","test","","","","","","","","",""
"730","82","poldrack-categorize","168","309357","0.0-168.0","d2c36317-0b85-47d0-b2a0-c0122bd62677","","1500","250","stim","","<div class = centerbox><div class = stroop-stim style = ""color:red"">RED</div></div>","66,71,82","1500","test","true","82","500","congruent","red","red","","",""
"-1","-1","poldrack-single-stim","169","310118","0.0-169.0","d2c36317-0b85-47d0-b2a0-c0122bd62677","","500","500","fixation","","<div class = centerbox><div class = fixation>+</div></div>","none","500","test","","","","","","","","",""
"1177","71","poldrack-categorize","170","312631","0.0-170.0","d2c36317-0b85-47d0-b2a0-c0122bd62677","","1500","250","stim","","<div class = centerbox><div class = stroop-stim style = ""color:green"">BLUE</div></div>","66,71,82","1500","test","true","71","500","incongruent","green","blue","","",""
"-1","-1","poldrack-single-stim","171","313391","0.0-171.0","d2c36317-0b85-47d0-b2a0-c0122bd62677","","500","500","fixation","","<div class = centerbox><div class = fixation>+</div></div>","none","500","test","","","","","","","","",""
"1031","66","poldrack-categorize","172","315905","0.0-172.0","d2c36317-0b85-47d0-b2a0-c0122bd62677","","1500","250","stim","","<div class = centerbox><div class = stroop-stim style = ""color:blue"">GREEN</div></div>","66,71,82","1500","test","true","66","500","incongruent","blue","green","","",""
"-1","-1","poldrack-single-stim","173","316665","0.0-173.0","d2c36317-0b85-47d0-b2a0-c0122bd62677","","500","500","fixation","","<div class = centerbox><div class = fixation>+</div></div>","none","500","test","","","","","","","","",""
"837","82","poldrack-categorize","174","319178","0.0-174.0","d2c36317-0b85-47d0-b2a0-c0122bd62677","","1500","250","stim","","<div class = centerbox><div class = stroop-stim style = ""color:red"">RED</div></div>","66,71,82","1500","test","true","82","500","congruent","red","red","","",""
"-1","-1","poldrack-single-stim","175","319939","0.0-175.0","d2c36317-0b85-47d0-b2a0-c0122bd62677","","500","500","fixation","","<div class = centerbox><div class = fixation>+</div></div>","none","500","test","","","","","","","","",""
"1051","66","poldrack-categorize","176","322452","0.0-176.0","d2c36317-0b85-47d0-b2a0-c0122bd62677","","1500","250","stim","","<div class = centerbox><div class = stroop-stim style = ""color:blue"">RED</div></div>","66,71,82","1500","test","true","66","500","incongruent","blue","red","","",""
"-1","-1","poldrack-single-stim","177","323213","0.0-177.0","d2c36317-0b85-47d0-b2a0-c0122bd62677","","500","500","fixation","","<div class = centerbox><div class = fixation>+</div></div>","none","500","test","","","","","","","","",""
"976","71","poldrack-categorize","178","325726","0.0-178.0","d2c36317-0b85-47d0-b2a0-c0122bd62677","","1500","250","stim","","<div class = centerbox><div class = stroop-stim style = ""color:green"">GREEN</div></div>","66,71,82","1500","test","true","71","500","congruent","green","green","","",""
"-1","-1","poldrack-single-stim","179","326487","0.0-179.0","d2c36317-0b85-47d0-b2a0-c0122bd62677","","500","500","fixation","","<div class = centerbox><div class = fixation>+</div></div>","none","500","test","","","","","","","","",""
"647","82","poldrack-categorize","180","329000","0.0-180.0","d2c36317-0b85-47d0-b2a0-c0122bd62677","","1500","250","stim","","<div class = centerbox><div class = stroop-stim style = ""color:red"">RED</div></div>","66,71,82","1500","test","true","82","500","congruent","red","red","","",""
"-1","-1","poldrack-single-stim","181","329760","0.0-181.0","d2c36317-0b85-47d0-b2a0-c0122bd62677","","500","500","fixation","","<div class = centerbox><div class = fixation>+</div></div>","none","500","test","","","","","","","","",""
"1077","82","poldrack-categorize","182","332274","0.0-182.0","d2c36317-0b85-47d0-b2a0-c0122bd62677","","1500","250","stim","","<div class = centerbox><div class = stroop-stim style = ""color:red"">RED</div></div>","66,71,82","1500","test","true","82","500","congruent","red","red","","",""
"-1","-1","poldrack-single-stim","183","333034","0.0-183.0","d2c36317-0b85-47d0-b2a0-c0122bd62677","","500","500","fixation","","<div class = centerbox><div class = fixation>+</div></div>","none","500","test","","","","","","","","",""
"859","71","poldrack-categorize","184","335546","0.0-184.0","d2c36317-0b85-47d0-b2a0-c0122bd62677","","1500","250","stim","","<div class = centerbox><div class = stroop-stim style = ""color:green"">GREEN</div></div>","66,71,82","1500","test","true","71","500","congruent","green","green","","",""
"-1","-1","poldrack-single-stim","185","336302","0.0-185.0","d2c36317-0b85-47d0-b2a0-c0122bd62677","","500","500","fixation","","<div class = centerbox><div class = fixation>+</div></div>","none","500","test","","","","","","","","",""
"870","66","poldrack-categorize","186","338815","0.0-186.0","d2c36317-0b85-47d0-b2a0-c0122bd62677","","1500","250","stim","","<div class = centerbox><div class = stroop-stim style = ""color:blue"">RED</div></div>","66,71,82","1500","test","true","66","500","incongruent","blue","red","","",""
"-1","-1","poldrack-single-stim","187","339570","0.0-187.0","d2c36317-0b85-47d0-b2a0-c0122bd62677","","500","500","fixation","","<div class = centerbox><div class = fixation>+</div></div>","none","500","test","","","","","","","","",""
"826","71","poldrack-categorize","188","342083","0.0-188.0","d2c36317-0b85-47d0-b2a0-c0122bd62677","","1500","250","stim","","<div class = centerbox><div class = stroop-stim style = ""color:green"">GREEN</div></div>","66,71,82","1500","test","true","71","500","congruent","green","green","","",""
"-1","-1","poldrack-single-stim","189","342844","0.0-189.0","d2c36317-0b85-47d0-b2a0-c0122bd62677","","500","500","fixation","","<div class = centerbox><div class = fixation>+</div></div>","none","500","test","","","","","","","","",""
"1104","66","poldrack-categorize","190","345357","0.0-190.0","d2c36317-0b85-47d0-b2a0-c0122bd62677","","1500","250","stim","","<div class = centerbox><div class = stroop-stim style = ""color:blue"">RED</div></div>","66,71,82","1500","test","true","66","500","incongruent","blue","red","","",""
"-1","-1","poldrack-single-stim","191","346118","0.0-191.0","d2c36317-0b85-47d0-b2a0-c0122bd62677","","500","500","fixation","","<div class = centerbox><div class = fixation>+</div></div>","none","500","test","","","","","","","","",""
"849","82","poldrack-categorize","192","348621","0.0-192.0","d2c36317-0b85-47d0-b2a0-c0122bd62677","","1500","250","stim","","<div class = centerbox><div class = stroop-stim style = ""color:red"">BLUE</div></div>","66,71,82","1500","test","true","82","500","incongruent","red","blue","","",""
"-1","-1","poldrack-single-stim","193","349380","0.0-193.0","d2c36317-0b85-47d0-b2a0-c0122bd62677","","500","500","fixation","","<div class = centerbox><div class = fixation>+</div></div>","none","500","test","","","","","","","","",""
"711","82","poldrack-categorize","194","351893","0.0-194.0","d2c36317-0b85-47d0-b2a0-c0122bd62677","","1500","250","stim","","<div class = centerbox><div class = stroop-stim style = ""color:red"">RED</div></div>","66,71,82","1500","test","true","82","500","congruent","red","red","","",""
"-1","-1","poldrack-single-stim","195","352654","0.0-195.0","d2c36317-0b85-47d0-b2a0-c0122bd62677","","500","500","fixation","","<div class = centerbox><div class = fixation>+</div></div>","none","500","test","","","","","","","","",""
"661","82","poldrack-categorize","196","355167","0.0-196.0","d2c36317-0b85-47d0-b2a0-c0122bd62677","","1500","250","stim","","<div class = centerbox><div class = stroop-stim style = ""color:red"">RED</div></div>","66,71,82","1500","test","true","82","500","congruent","red","red","","",""
"-1","-1","poldrack-single-stim","197","355928","0.0-197.0","d2c36317-0b85-47d0-b2a0-c0122bd62677","","500","500","fixation","","<div class = centerbox><div class = fixation>+</div></div>","none","500","test","","","","","","","","",""
"988","66","poldrack-categorize","198","358441","0.0-198.0","d2c36317-0b85-47d0-b2a0-c0122bd62677","","1500","250","stim","","<div class = centerbox><div class = stroop-stim style = ""color:blue"">BLUE</div></div>","66,71,82","1500","test","true","66","500","congruent","blue","blue","","",""
"-1","-1","poldrack-single-stim","199","359196","0.0-199.0","d2c36317-0b85-47d0-b2a0-c0122bd62677","","500","500","fixation","","<div class = centerbox><div class = fixation>+</div></div>","none","500","test","","","","","","","","",""
"783","66","poldrack-categorize","200","361709","0.0-200.0","d2c36317-0b85-47d0-b2a0-c0122bd62677","","1500","250","stim","","<div class = centerbox><div class = stroop-stim style = ""color:blue"">GREEN</div></div>","66,71,82","1500","test","true","66","500","incongruent","blue","green","","",""
"-1","-1","poldrack-single-stim","201","362469","0.0-201.0","d2c36317-0b85-47d0-b2a0-c0122bd62677","","500","500","fixation","","<div class = centerbox><div class = fixation>+</div></div>","none","500","test","","","","","","","","",""
"766","66","poldrack-categorize","202","364983","0.0-202.0","d2c36317-0b85-47d0-b2a0-c0122bd62677","","1500","250","stim","","<div class = centerbox><div class = stroop-stim style = ""color:blue"">RED</div></div>","66,71,82","1500","test","true","66","500","incongruent","blue","red","","",""
"-1","-1","poldrack-single-stim","203","365743","0.0-203.0","d2c36317-0b85-47d0-b2a0-c0122bd62677","","500","500","fixation","","<div class = centerbox><div class = fixation>+</div></div>","none","500","test","","","","","","","","",""
"1180","71","poldrack-categorize","204","368257","0.0-204.0","d2c36317-0b85-47d0-b2a0-c0122bd62677","","1500","250","stim","","<div class = centerbox><div class = stroop-stim style = ""color:green"">BLUE</div></div>","66,71,82","1500","test","true","71","500","incongruent","green","blue","","",""
"-1","-1","poldrack-single-stim","205","369017","0.0-205.0","d2c36317-0b85-47d0-b2a0-c0122bd62677","","500","500","fixation","","<div class = centerbox><div class = fixation>+</div></div>","none","500","test","","","","","","","","",""
"529","82","poldrack-categorize","206","371530","0.0-206.0","d2c36317-0b85-47d0-b2a0-c0122bd62677","","1500","250","stim","","<div class = centerbox><div class = stroop-stim style = ""color:red"">RED</div></div>","66,71,82","1500","test","true","82","500","congruent","red","red","","",""
"-1","-1","poldrack-single-stim","207","372291","0.0-207.0","d2c36317-0b85-47d0-b2a0-c0122bd62677","","500","500","fixation","","<div class = centerbox><div class = fixation>+</div></div>","none","500","test","","","","","","","","",""
"535","82","poldrack-categorize","208","374804","0.0-208.0","d2c36317-0b85-47d0-b2a0-c0122bd62677","","1500","250","stim","","<div class = centerbox><div class = stroop-stim style = ""color:red"">RED</div></div>","66,71,82","1500","test","true","82","500","congruent","red","red","","",""
"-1","-1","poldrack-single-stim","209","375565","0.0-209.0","d2c36317-0b85-47d0-b2a0-c0122bd62677","","500","500","fixation","","<div class = centerbox><div class = fixation>+</div></div>","none","500","test","","","","","","","","",""
"797","71","poldrack-categorize","210","378078","0.0-210.0","d2c36317-0b85-47d0-b2a0-c0122bd62677","","1500","250","stim","","<div class = centerbox><div class = stroop-stim style = ""color:green"">GREEN</div></div>","66,71,82","1500","test","true","71","500","congruent","green","green","","",""
"-1","-1","poldrack-single-stim","211","378838","0.0-211.0","d2c36317-0b85-47d0-b2a0-c0122bd62677","","500","500","fixation","","<div class = centerbox><div class = fixation>+</div></div>","none","500","test","","","","","","","","",""
"484","71","poldrack-categorize","212","381352","0.0-212.0","d2c36317-0b85-47d0-b2a0-c0122bd62677","","1500","250","stim","","<div class = centerbox><div class = stroop-stim style = ""color:green"">BLUE</div></div>","66,71,82","1500","test","true","71","500","incongruent","green","blue","","",""
"-1","-1","poldrack-single-stim","213","382109","0.0-213.0","d2c36317-0b85-47d0-b2a0-c0122bd62677","","500","500","fixation","","<div class = centerbox><div class = fixation>+</div></div>","none","500","test","","","","","","","","",""
"623","71","poldrack-categorize","214","384620","0.0-214.0","d2c36317-0b85-47d0-b2a0-c0122bd62677","","1500","250","stim","","<div class = centerbox><div class = stroop-stim style = ""color:green"">RED</div></div>","66,71,82","1500","test","true","71","500","incongruent","green","red","","",""
"-1","-1","poldrack-single-stim","215","385380","0.0-215.0","d2c36317-0b85-47d0-b2a0-c0122bd62677","","500","500","fixation","","<div class = centerbox><div class = fixation>+</div></div>","none","500","test","","","","","","","","",""
"589","71","poldrack-categorize","216","387893","0.0-216.0","d2c36317-0b85-47d0-b2a0-c0122bd62677","","1500","250","stim","","<div class = centerbox><div class = stroop-stim style = ""color:green"">RED</div></div>","66,71,82","1500","test","true","71","500","incongruent","green","red","","",""
"-1","-1","poldrack-single-stim","217","388654","0.0-217.0","d2c36317-0b85-47d0-b2a0-c0122bd62677","","500","500","fixation","","<div class = centerbox><div class = fixation>+</div></div>","none","500","test","","","","","","","","",""
"715","82","poldrack-categorize","218","391167","0.0-218.0","d2c36317-0b85-47d0-b2a0-c0122bd62677","","1500","250","stim","","<div class = centerbox><div class = stroop-stim style = ""color:red"">GREEN</div></div>","66,71,82","1500","test","true","82","500","incongruent","red","green","","",""
"-1","-1","poldrack-single-stim","219","391926","0.0-219.0","d2c36317-0b85-47d0-b2a0-c0122bd62677","","500","500","fixation","","<div class = centerbox><div class = fixation>+</div></div>","none","500","test","","","","","","","","",""
"1111","82","poldrack-categorize","220","394435","0.0-220.0","d2c36317-0b85-47d0-b2a0-c0122bd62677","","1500","250","stim","","<div class = centerbox><div class = stroop-stim style = ""color:red"">BLUE</div></div>","66,71,82","1500","test","true","82","500","incongruent","red","blue","","",""
"-1","-1","poldrack-single-stim","221","395195","0.0-221.0","d2c36317-0b85-47d0-b2a0-c0122bd62677","","500","500","fixation","","<div class = centerbox><div class = fixation>+</div></div>","none","500","test","","","","","","","","",""
"892","82","poldrack-categorize","222","397703","0.0-222.0","d2c36317-0b85-47d0-b2a0-c0122bd62677","","1500","250","stim","","<div class = centerbox><div class = stroop-stim style = ""color:red"">RED</div></div>","66,71,82","1500","test","true","82","500","congruent","red","red","","",""
"-1","-1","poldrack-single-stim","223","398465","0.0-223.0","d2c36317-0b85-47d0-b2a0-c0122bd62677","","500","500","fixation","","<div class = centerbox><div class = fixation>+</div></div>","none","500","test","","","","","","","","",""
"624","66","poldrack-categorize","224","400977","0.0-224.0","d2c36317-0b85-47d0-b2a0-c0122bd62677","","1500","250","stim","","<div class = centerbox><div class = stroop-stim style = ""color:blue"">BLUE</div></div>","66,71,82","1500","test","true","66","500","congruent","blue","blue","","",""
"-1","-1","poldrack-single-stim","225","401738","0.0-225.0","d2c36317-0b85-47d0-b2a0-c0122bd62677","","500","500","fixation","","<div class = centerbox><div class = fixation>+</div></div>","none","500","test","","","","","","","","",""
"670","71","poldrack-categorize","226","404251","0.0-226.0","d2c36317-0b85-47d0-b2a0-c0122bd62677","","1500","250","stim","","<div class = centerbox><div class = stroop-stim style = ""color:green"">GREEN</div></div>","66,71,82","1500","test","true","71","500","congruent","green","green","","",""
"-1","-1","poldrack-single-stim","227","405012","0.0-227.0","d2c36317-0b85-47d0-b2a0-c0122bd62677","","500","500","fixation","","<div class = centerbox><div class = fixation>+</div></div>","none","500","test","","","","","","","","",""
"853","71","poldrack-categorize","228","407525","0.0-228.0","d2c36317-0b85-47d0-b2a0-c0122bd62677","","1500","250","stim","","<div class = centerbox><div class = stroop-stim style = ""color:green"">BLUE</div></div>","66,71,82","1500","test","true","71","500","incongruent","green","blue","","",""
"-1","-1","poldrack-single-stim","229","408285","0.0-229.0","d2c36317-0b85-47d0-b2a0-c0122bd62677","","500","500","fixation","","<div class = centerbox><div class = fixation>+</div></div>","none","500","test","","","","","","","","",""
"715","82","poldrack-categorize","230","410798","0.0-230.0","d2c36317-0b85-47d0-b2a0-c0122bd62677","","1500","250","stim","","<div class = centerbox><div class = stroop-stim style = ""color:red"">RED</div></div>","66,71,82","1500","test","true","82","500","congruent","red","red","","",""
"-1","-1","poldrack-single-stim","231","411556","0.0-231.0","d2c36317-0b85-47d0-b2a0-c0122bd62677","","500","500","fixation","","<div class = centerbox><div class = fixation>+</div></div>","none","500","test","","","","","","","","",""
"846","71","poldrack-categorize","232","414067","0.0-232.0","d2c36317-0b85-47d0-b2a0-c0122bd62677","","1500","250","stim","","<div class = centerbox><div class = stroop-stim style = ""color:green"">GREEN</div></div>","66,71,82","1500","test","true","71","500","congruent","green","green","","",""
"-1","-1","poldrack-single-stim","233","414827","0.0-233.0","d2c36317-0b85-47d0-b2a0-c0122bd62677","","500","500","fixation","","<div class = centerbox><div class = fixation>+</div></div>","none","500","test","","","","","","","","",""
"685","71","poldrack-categorize","234","417340","0.0-234.0","d2c36317-0b85-47d0-b2a0-c0122bd62677","","1500","250","stim","","<div class = centerbox><div class = stroop-stim style = ""color:green"">RED</div></div>","66,71,82","1500","test","true","71","500","incongruent","green","red","","",""
"-1","-1","poldrack-single-stim","235","418101","0.0-235.0","d2c36317-0b85-47d0-b2a0-c0122bd62677","","500","500","fixation","","<div class = centerbox><div class = fixation>+</div></div>","none","500","test","","","","","","","","",""
"618","71","poldrack-categorize","236","420614","0.0-236.0","d2c36317-0b85-47d0-b2a0-c0122bd62677","","1500","250","stim","","<div class = centerbox><div class = stroop-stim style = ""color:green"">GREEN</div></div>","66,71,82","1500","test","true","71","500","congruent","green","green","","",""
"-1","-1","poldrack-single-stim","237","421373","0.0-237.0","d2c36317-0b85-47d0-b2a0-c0122bd62677","","500","500","fixation","","<div class = centerbox><div class = fixation>+</div></div>","none","500","test","","","","","","","","",""
"830","66","poldrack-categorize","238","423882","0.0-238.0","d2c36317-0b85-47d0-b2a0-c0122bd62677","","1500","250","stim","","<div class = centerbox><div class = stroop-stim style = ""color:blue"">RED</div></div>","66,71,82","1500","test","true","66","500","incongruent","blue","red","","",""
"-1","-1","poldrack-single-stim","239","424643","0.0-239.0","d2c36317-0b85-47d0-b2a0-c0122bd62677","","500","500","fixation","","<div class = centerbox><div class = fixation>+</div></div>","none","500","test","","","","","","","","",""
"757","71","poldrack-categorize","240","427156","0.0-240.0","d2c36317-0b85-47d0-b2a0-c0122bd62677","","1500","250","stim","","<div class = centerbox><div class = stroop-stim style = ""color:green"">GREEN</div></div>","66,71,82","1500","test","true","71","500","congruent","green","green","","",""
"-1","-1","poldrack-single-stim","241","427916","0.0-241.0","d2c36317-0b85-47d0-b2a0-c0122bd62677","","500","500","fixation","","<div class = centerbox><div class = fixation>+</div></div>","none","500","test","","","","","","","","",""
"770","71","poldrack-categorize","242","430430","0.0-242.0","d2c36317-0b85-47d0-b2a0-c0122bd62677","","1500","250","stim","","<div class = centerbox><div class = stroop-stim style = ""color:green"">BLUE</div></div>","66,71,82","1500","test","true","71","500","incongruent","green","blue","","",""
"-1","-1","poldrack-single-stim","243","431190","0.0-243.0","d2c36317-0b85-47d0-b2a0-c0122bd62677","","500","500","fixation","","<div class = centerbox><div class = fixation>+</div></div>","none","500","test","","","","","","","","",""
"488","66","poldrack-categorize","244","433704","0.0-244.0","d2c36317-0b85-47d0-b2a0-c0122bd62677","","1500","250","stim","","<div class = centerbox><div class = stroop-stim style = ""color:blue"">BLUE</div></div>","66,71,82","1500","test","true","66","500","congruent","blue","blue","","",""
"84242","","survey-text","245","518206","0.0-246.0","d2c36317-0b85-47d0-b2a0-c0122bd62677","","","","post task questions","","","","","","","","","","","","{""Q0"":""Identify what color the word on the screen is. If the color of the word is red \""r', blue 'b', and green 'g' the corresponding letters are tapped."",""Q1"":""N/A""}","",""
"1511","13","poldrack-text","246","520722","0.0-247.0","d2c36317-0b85-47d0-b2a0-c0122bd62677","<div class = centerbox><p class = center-block-text>Thanks for completing this task!</p><p class = center-block-text>Press <strong>enter</strong> to continue.</p></div>","1511","0","end","","","","","","","","","","","","","stroop","true"
"412555","13","text","247","933312","0.0-248.0","d2c36317-0b85-47d0-b2a0-c0122bd62677","","","","","","","","","","","","","","","","","",""
