"rt","key_press","trial_type","trial_index","time_elapsed","internal_node_id","subject","text","block_duration","timing_post_trial","trial_id","view_history","stimulus","possible_responses","stim_duration","exp_stage","correct","correct_response","feedback_duration","condition","stim_color","stim_word","responses","exp_id","credit_var"
"955","13","text","0","957","0.0-0.0","b4c5e961-c1cc-46d3-8fd4-2bb7bde12c95","","","","","","","","","","","","","","","","","",""
"30391","13","poldrack-text","1","32351","0.0-1.0-0.0","b4c5e961-c1cc-46d3-8fd4-2bb7bde12c95","<div class = centerbox><p class = center-block-text>Welcome to the experiment. This experiment will take about 8 minutes. Press <strong>enter</strong> to begin.</p></div>","30391","0","instruction","","","","","","","","","","","","","",""
"16303","","poldrack-instructions","2","48655","0.0-1.0-1.0","b4c5e961-c1cc-46d3-8fd4-2bb7bde12c95","","","","instruction","[{""page_index"":0,""viewing_time"":16302}]","","","","","","","","","","","","",""
"8232","13","poldrack-text","3","57889","0.0-2.0","b4c5e961-c1cc-46d3-8fd4-2bb7bde12c95","<div class = centerbox><p class = block-text>We will start with a few practice trials. Remember, press the key corresponding to the <strong>ink</strong> color of the word: ""r"" for words colored red, ""b"" for words colored blue, and ""g"" for words colored green.</p><p class = block-text>Press <strong>enter</strong> to begin practice.</p></div>","8232","1000","practice_intro","","","","","","","","","","","","","",""
"-1","-1","poldrack-single-stim","4","59398","0.0-3.0","b4c5e961-c1cc-46d3-8fd4-2bb7bde12c95","","500","500","fixation","","<div class = centerbox><div class = fixation>+</div></div>","none","500","practice","","","","","","","","",""
"957","71","poldrack-categorize","5","61909","0.0-4.0","b4c5e961-c1cc-46d3-8fd4-2bb7bde12c95","","1500","250","stim","","<div class = centerbox><div class = stroop-stim style = ""color:blue"">GREEN</div></div>","66,71,82","1500","practice","false","66","500","incongruent","blue","green","","",""
"-1","-1","poldrack-single-stim","6","62667","0.0-5.0","b4c5e961-c1cc-46d3-8fd4-2bb7bde12c95","","500","500","fixation","","<div class = centerbox><div class = fixation>+</div></div>","none","500","practice","","","","","","","","",""
"861","82","poldrack-categorize","7","65178","0.0-6.0","b4c5e961-c1cc-46d3-8fd4-2bb7bde12c95","","1500","250","stim","","<div class = centerbox><div class = stroop-stim style = ""color:red"">RED</div></div>","66,71,82","1500","practice","true","82","500","congruent","red","red","","",""
"-1","-1","poldrack-single-stim","8","65936","0.0-7.0","b4c5e961-c1cc-46d3-8fd4-2bb7bde12c95","","500","500","fixation","","<div class = centerbox><div class = fixation>+</div></div>","none","500","practice","","","","","","","","",""
"919","66","poldrack-categorize","9","68446","0.0-8.0","b4c5e961-c1cc-46d3-8fd4-2bb7bde12c95","","1500","250","stim","","<div class = centerbox><div class = stroop-stim style = ""color:blue"">BLUE</div></div>","66,71,82","1500","practice","true","66","500","congruent","blue","blue","","",""
"-1","-1","poldrack-single-stim","10","69206","0.0-9.0","b4c5e961-c1cc-46d3-8fd4-2bb7bde12c95","","500","500","fixation","","<div class = centerbox><div class = fixation>+</div></div>","none","500","practice","","","","","","","","",""
"1051","66","poldrack-categorize","11","71713","0.0-10.0","b4c5e961-c1cc-46d3-8fd4-2bb7bde12c95","","1500","250","stim","","<div class = centerbox><div class = stroop-stim style = ""color:blue"">GREEN</div></div>","66,71,82","1500","practice","true","66","500","incongruent","blue","green","","",""
"-1","-1","poldrack-single-stim","12","72469","0.0-11.0","b4c5e961-c1cc-46d3-8fd4-2bb7bde12c95","","500","500","fixation","","<div class = centerbox><div class = fixation>+</div></div>","none","500","practice","","","","","","","","",""
"654","82","poldrack-categorize","13","74982","0.0-12.0","b4c5e961-c1cc-46d3-8fd4-2bb7bde12c95","","1500","250","stim","","<div class = centerbox><div class = stroop-stim style = ""color:red"">RED</div></div>","66,71,82","1500","practice","true","82","500","congruent","red","red","","",""
"-1","-1","poldrack-single-stim","14","75742","0.0-13.0","b4c5e961-c1cc-46d3-8fd4-2bb7bde12c95","","500","500","fixation","","<div class = centerbox><div class = fixation>+</div></div>","none","500","practice","","","","","","","","",""
"869","82","poldrack-categorize","15","78256","0.0-14.0","b4c5e961-c1cc-46d3-8fd4-2bb7bde12c95","","1500","250","stim","","<div class = centerbox><div class = stroop-stim style = ""color:red"">BLUE</div></div>","66,71,82","1500","practice","true","82","500","incongruent","red","blue","","",""
"-1","-1","poldrack-single-stim","16","79016","0.0-15.0","b4c5e961-c1cc-46d3-8fd4-2bb7bde12c95","","500","500","fixation","","<div class = centerbox><div class = fixation>+</div></div>","none","500","practice","","","","","","","","",""
"891","71","poldrack-categorize","17","81529","0.0-16.0","b4c5e961-c1cc-46d3-8fd4-2bb7bde12c95","","1500","250","stim","","<div class = centerbox><div class = stroop-stim style = ""color:green"">GREEN</div></div>","66,71,82","1500","practice","true","71","500","congruent","green","green","","",""
"-1","-1","poldrack-single-stim","18","82290","0.0-17.0","b4c5e961-c1cc-46d3-8fd4-2bb7bde12c95","","500","500","fixation","","<div class = centerbox><div class = fixation>+</div></div>","none","500","practice","","","","","","","","",""
"925","71","poldrack-categorize","19","84803","0.0-18.0","b4c5e961-c1cc-46d3-8fd4-2bb7bde12c95","","1500","250","stim","","<div class = centerbox><div class = stroop-stim style = ""color:green"">RED</div></div>","66,71,82","1500","practice","true","71","500","incongruent","green","red","","",""
"-1","-1","poldrack-single-stim","20","85564","0.0-19.0","b4c5e961-c1cc-46d3-8fd4-2bb7bde12c95","","500","500","fixation","","<div class = centerbox><div class = fixation>+</div></div>","none","500","practice","","","","","","","","",""
"463","71","poldrack-categorize","21","88073","0.0-20.0","b4c5e961-c1cc-46d3-8fd4-2bb7bde12c95","","1500","250","stim","","<div class = centerbox><div class = stroop-stim style = ""color:green"">GREEN</div></div>","66,71,82","1500","practice","true","71","500","congruent","green","green","","",""
"-1","-1","poldrack-single-stim","22","88832","0.0-21.0","b4c5e961-c1cc-46d3-8fd4-2bb7bde12c95","","500","500","fixation","","<div class = centerbox><div class = fixation>+</div></div>","none","500","practice","","","","","","","","",""
"1283","82","poldrack-categorize","23","91339","0.0-22.0","b4c5e961-c1cc-46d3-8fd4-2bb7bde12c95","","1500","250","stim","","<div class = centerbox><div class = stroop-stim style = ""color:red"">GREEN</div></div>","66,71,82","1500","practice","true","82","500","incongruent","red","green","","",""
"-1","-1","poldrack-single-stim","24","92100","0.0-23.0","b4c5e961-c1cc-46d3-8fd4-2bb7bde12c95","","500","500","fixation","","<div class = centerbox><div class = fixation>+</div></div>","none","500","practice","","","","","","","","",""
"745","71","poldrack-categorize","25","94612","0.0-24.0","b4c5e961-c1cc-46d3-8fd4-2bb7bde12c95","","1500","250","stim","","<div class = centerbox><div class = stroop-stim style = ""color:green"">BLUE</div></div>","66,71,82","1500","practice","true","71","500","incongruent","green","blue","","",""
"-1","-1","poldrack-single-stim","26","95368","0.0-25.0","b4c5e961-c1cc-46d3-8fd4-2bb7bde12c95","","500","500","fixation","","<div class = centerbox><div class = fixation>+</div></div>","none","500","practice","","","","","","","","",""
"728","66","poldrack-categorize","27","97878","0.0-26.0","b4c5e961-c1cc-46d3-8fd4-2bb7bde12c95","","1500","250","stim","","<div class = centerbox><div class = stroop-stim style = ""color:blue"">RED</div></div>","66,71,82","1500","practice","true","66","500","incongruent","blue","red","","",""
"-1","-1","poldrack-single-stim","28","98636","0.0-27.0","b4c5e961-c1cc-46d3-8fd4-2bb7bde12c95","","500","500","fixation","","<div class = centerbox><div class = fixation>+</div></div>","none","500","practice","","","","","","","","",""
"509","82","poldrack-categorize","29","101149","0.0-28.0","b4c5e961-c1cc-46d3-8fd4-2bb7bde12c95","","1500","250","stim","","<div class = centerbox><div class = stroop-stim style = ""color:red"">RED</div></div>","66,71,82","1500","practice","true","82","500","congruent","red","red","","",""
"-1","-1","poldrack-single-stim","30","101910","0.0-29.0","b4c5e961-c1cc-46d3-8fd4-2bb7bde12c95","","500","500","fixation","","<div class = centerbox><div class = fixation>+</div></div>","none","500","practice","","","","","","","","",""
"757","66","poldrack-categorize","31","104420","0.0-30.0","b4c5e961-c1cc-46d3-8fd4-2bb7bde12c95","","1500","250","stim","","<div class = centerbox><div class = stroop-stim style = ""color:blue"">BLUE</div></div>","66,71,82","1500","practice","true","66","500","congruent","blue","blue","","",""
"-1","-1","poldrack-single-stim","32","105178","0.0-31.0","b4c5e961-c1cc-46d3-8fd4-2bb7bde12c95","","500","500","fixation","","<div class = centerbox><div class = fixation>+</div></div>","none","500","practice","","","","","","","","",""
"673","71","poldrack-categorize","33","107691","0.0-32.0","b4c5e961-c1cc-46d3-8fd4-2bb7bde12c95","","1500","250","stim","","<div class = centerbox><div class = stroop-stim style = ""color:green"">RED</div></div>","66,71,82","1500","practice","true","71","500","incongruent","green","red","","",""
"-1","-1","poldrack-single-stim","34","108446","0.0-33.0","b4c5e961-c1cc-46d3-8fd4-2bb7bde12c95","","500","500","fixation","","<div class = centerbox><div class = fixation>+</div></div>","none","500","practice","","","","","","","","",""
"599","66","poldrack-categorize","35","110959","0.0-34.0","b4c5e961-c1cc-46d3-8fd4-2bb7bde12c95","","1500","250","stim","","<div class = centerbox><div class = stroop-stim style = ""color:blue"">BLUE</div></div>","66,71,82","1500","practice","true","66","500","congruent","blue","blue","","",""
"-1","-1","poldrack-single-stim","36","111719","0.0-35.0","b4c5e961-c1cc-46d3-8fd4-2bb7bde12c95","","500","500","fixation","","<div class = centerbox><div class = fixation>+</div></div>","none","500","practice","","","","","","","","",""
"701","66","poldrack-categorize","37","114233","0.0-36.0","b4c5e961-c1cc-46d3-8fd4-2bb7bde12c95","","1500","250","stim","","<div class = centerbox><div class = stroop-stim style = ""color:red"">BLUE</div></div>","66,71,82","1500","practice","false","82","500","incongruent","red","blue","","",""
"-1","-1","poldrack-single-stim","38","114993","0.0-37.0","b4c5e961-c1cc-46d3-8fd4-2bb7bde12c95","","500","500","fixation","","<div class = centerbox><div class = fixation>+</div></div>","none","500","practice","","","","","","","","",""
"870","66","poldrack-categorize","39","117507","0.0-38.0","b4c5e961-c1cc-46d3-8fd4-2bb7bde12c95","","1500","250","stim","","<div class = centerbox><div class = stroop-stim style = ""color:blue"">RED</div></div>","66,71,82","1500","practice","true","66","500","incongruent","blue","red","","",""
"-1","-1","poldrack-single-stim","40","118267","0.0-39.0","b4c5e961-c1cc-46d3-8fd4-2bb7bde12c95","","500","500","fixation","","<div class = centerbox><div class = fixation>+</div></div>","none","500","practice","","","","","","","","",""
"951","82","poldrack-categorize","41","120780","0.0-40.0","b4c5e961-c1cc-46d3-8fd4-2bb7bde12c95","","1500","250","stim","","<div class = centerbox><div class = stroop-stim style = ""color:red"">RED</div></div>","66,71,82","1500","practice","true","82","500","congruent","red","red","","",""
"-1","-1","poldrack-single-stim","42","121541","0.0-41.0","b4c5e961-c1cc-46d3-8fd4-2bb7bde12c95","","500","500","fixation","","<div class = centerbox><div class = fixation>+</div></div>","none","500","practice","","","","","","","","",""
"644","66","poldrack-categorize","43","124054","0.0-42.0","b4c5e961-c1cc-46d3-8fd4-2bb7bde12c95","","1500","250","stim","","<div class = centerbox><div class = stroop-stim style = ""color:blue"">BLUE</div></div>","66,71,82","1500","practice","true","66","500","congruent","blue","blue","","",""
"-1","-1","poldrack-single-stim","44","124815","0.0-43.0","b4c5e961-c1cc-46d3-8fd4-2bb7bde12c95","","500","500","fixation","","<div class = centerbox><div class = fixation>+</div></div>","none","500","practice","","","","","","","","",""
"599","71","poldrack-categorize","45","127328","0.0-44.0","b4c5e961-c1cc-46d3-8fd4-2bb7bde12c95","","1500","250","stim","","<div class = centerbox><div class = stroop-stim style = ""color:green"">GREEN</div></div>","66,71,82","1500","practice","true","71","500","congruent","green","green","","",""
"-1","-1","poldrack-single-stim","46","128089","0.0-45.0","b4c5e961-c1cc-46d3-8fd4-2bb7bde12c95","","500","500","fixation","","<div class = centerbox><div class = fixation>+</div></div>","none","500","practice","","","","","","","","",""
"723","71","poldrack-categorize","47","130602","0.0-46.0","b4c5e961-c1cc-46d3-8fd4-2bb7bde12c95","","1500","250","stim","","<div class = centerbox><div class = stroop-stim style = ""color:green"">BLUE</div></div>","66,71,82","1500","practice","true","71","500","incongruent","green","blue","","",""
"-1","-1","poldrack-single-stim","48","131356","0.0-47.0","b4c5e961-c1cc-46d3-8fd4-2bb7bde12c95","","500","500","fixation","","<div class = centerbox><div class = fixation>+</div></div>","none","500","practice","","","","","","","","",""
"460","71","poldrack-categorize","49","133870","0.0-48.0","b4c5e961-c1cc-46d3-8fd4-2bb7bde12c95","","1500","250","stim","","<div class = centerbox><div class = stroop-stim style = ""color:green"">GREEN</div></div>","66,71,82","1500","practice","true","71","500","congruent","green","green","","",""
"-1","-1","poldrack-single-stim","50","134630","0.0-49.0","b4c5e961-c1cc-46d3-8fd4-2bb7bde12c95","","500","500","fixation","","<div class = centerbox><div class = fixation>+</div></div>","none","500","practice","","","","","","","","",""
"516","71","poldrack-categorize","51","137144","0.0-50.0","b4c5e961-c1cc-46d3-8fd4-2bb7bde12c95","","1500","250","stim","","<div class = centerbox><div class = stroop-stim style = ""color:red"">GREEN</div></div>","66,71,82","1500","practice","false","82","500","incongruent","red","green","","",""
"5362","13","poldrack-text","52","142762","0.0-52.0","b4c5e961-c1cc-46d3-8fd4-2bb7bde12c95","<div class = centerbox><p class = center-block-text>We will now start the test. Respond exactly like you did during practice.</p><p class = center-block-text>Press <strong>enter</strong> to begin the test.</p></div>","5362","1000","test_intro","","","","","","","","","","","","","",""
"-1","-1","poldrack-single-stim","53","144272","0.0-53.0","b4c5e961-c1cc-46d3-8fd4-2bb7bde12c95","","500","500","fixation","","<div class = centerbox><div class = fixation>+</div></div>","none","500","test","","","","","","","","",""
"711","71","poldrack-categorize","54","146779","0.0-54.0","b4c5e961-c1cc-46d3-8fd4-2bb7bde12c95","","1500","250","stim","","<div class = centerbox><div class = stroop-stim style = ""color:green"">GREEN</div></div>","66,71,82","1500","test","true","71","500","congruent","green","green","","",""
"-1","-1","poldrack-single-stim","55","147540","0.0-55.0","b4c5e961-c1cc-46d3-8fd4-2bb7bde12c95","","500","500","fixation","","<div class = centerbox><div class = fixation>+</div></div>","none","500","test","","","","","","","","",""
"625","71","poldrack-categorize","56","150053","0.0-56.0","b4c5e961-c1cc-46d3-8fd4-2bb7bde12c95","","1500","250","stim","","<div class = centerbox><div class = stroop-stim style = ""color:blue"">GREEN</div></div>","66,71,82","1500","test","false","66","500","incongruent","blue","green","","",""
"-1","-1","poldrack-single-stim","57","150808","0.0-57.0","b4c5e961-c1cc-46d3-8fd4-2bb7bde12c95","","500","500","fixation","","<div class = centerbox><div class = fixation>+</div></div>","none","500","test","","","","","","","","",""
"673","82","poldrack-categorize","58","153321","0.0-58.0","b4c5e961-c1cc-46d3-8fd4-2bb7bde12c95","","1500","250","stim","","<div class = centerbox><div class = stroop-stim style = ""color:red"">BLUE</div></div>","66,71,82","1500","test","true","82","500","incongruent","red","blue","","",""
"-1","-1","poldrack-single-stim","59","154082","0.0-59.0","b4c5e961-c1cc-46d3-8fd4-2bb7bde12c95","","500","500","fixation","","<div class = centerbox><div class = fixation>+</div></div>","none","500","test","","","","","","","","",""
"923","66","poldrack-categorize","60","156595","0.0-60.0","b4c5e961-c1cc-46d3-8fd4-2bb7bde12c95","","1500","250","stim","","<div class = centerbox><div class = stroop-stim style = ""color:blue"">RED</div></div>","66,71,82","1500","test","true","66","500","incongruent","blue","red","","",""
"-1","-1","poldrack-single-stim","61","157355","0.0-61.0","b4c5e961-c1cc-46d3-8fd4-2bb7bde12c95","","500","500","fixation","","<div class = centerbox><div class = fixation>+</div></div>","none","500","test","","","","","","","","",""
"697","82","poldrack-categorize","62","159869","0.0-62.0","b4c5e961-c1cc-46d3-8fd4-2bb7bde12c95","","1500","250","stim","","<div class = centerbox><div class = stroop-stim style = ""color:red"">RED</div></div>","66,71,82","1500","test","true","82","500","congruent","red","red","","",""
"-1","-1","poldrack-single-stim","63","160623","0.0-63.0","b4c5e961-c1cc-46d3-8fd4-2bb7bde12c95","","500","500","fixation","","<div class = centerbox><div class = fixation>+</div></div>","none","500","test","","","","","","","","",""
"579","82","poldrack-categorize","64","163137","0.0-64.0","b4c5e961-c1cc-46d3-8fd4-2bb7bde12c95","","1500","250","stim","","<div class = centerbox><div class = stroop-stim style = ""color:red"">RED</div></div>","66,71,82","1500","test","true","82","500","congruent","red","red","","",""
"-1","-1","poldrack-single-stim","65","163897","0.0-65.0","b4c5e961-c1cc-46d3-8fd4-2bb7bde12c95","","500","500","fixation","","<div class = centerbox><div class = fixation>+</div></div>","none","500","test","","","","","","","","",""
"815","66","poldrack-categorize","66","166410","0.0-66.0","b4c5e961-c1cc-46d3-8fd4-2bb7bde12c95","","1500","250","stim","","<div class = centerbox><div class = stroop-stim style = ""color:blue"">BLUE</div></div>","66,71,82","1500","test","true","66","500","congruent","blue","blue","","",""
"-1","-1","poldrack-single-stim","67","167171","0.0-67.0","b4c5e961-c1cc-46d3-8fd4-2bb7bde12c95","","500","500","fixation","","<div class = centerbox><div class = fixation>+</div></div>","none","500","test","","","","","","","","",""
"523","66","poldrack-categorize","68","169684","0.0-68.0","b4c5e961-c1cc-46d3-8fd4-2bb7bde12c95","","1500","250","stim","","<div class = centerbox><div class = stroop-stim style = ""color:blue"">BLUE</div></div>","66,71,82","1500","test","true","66","500","congruent","blue","blue","","",""
"-1","-1","poldrack-single-stim","69","170445","0.0-69.0","b4c5e961-c1cc-46d3-8fd4-2bb7bde12c95","","500","500","fixation","","<div class = centerbox><div class = fixation>+</div></div>","none","500","test","","","","","","","","",""
"635","82","poldrack-categorize","70","172958","0.0-70.0","b4c5e961-c1cc-46d3-8fd4-2bb7bde12c95","","1500","250","stim","","<div class = centerbox><div class = stroop-stim style = ""color:red"">RED</div></div>","66,71,82","1500","test","true","82","500","congruent","red","red","","",""
"-1","-1","poldrack-single-stim","71","173719","0.0-71.0","b4c5e961-c1cc-46d3-8fd4-2bb7bde12c95","","500","500","fixation","","<div class = centerbox><div class = fixation>+</div></div>","none","500","test","","","","","","","","",""
"646","71","poldrack-categorize","72","176232","0.0-72.0","b4c5e961-c1cc-46d3-8fd4-2bb7bde12c95","","1500","250","stim","","<div class = centerbox><div class = stroop-stim style = ""color:green"">GREEN</div></div>","66,71,82","1500","test","true","71","500","congruent","green","green","","",""
"-1","-1","poldrack-single-stim","73","176987","0.0-73.0","b4c5e961-c1cc-46d3-8fd4-2bb7bde12c95","","500","500","fixation","","<div class = centerbox><div class = fixation>+</div></div>","none","500","test","","","","","","","","",""
"946","71","poldrack-categorize","74","179500","0.0-74.0","b4c5e961-c1cc-46d3-8fd4-2bb7bde12c95","","1500","250","stim","","<div class = centerbox><div class = stroop-stim style = ""color:green"">BLUE</div></div>","66,71,82","1500","test","true","71","500","incongruent","green","blue","","",""
"-1","-1","poldrack-single-stim","75","180261","0.0-75.0","b4c5e961-c1cc-46d3-8fd4-2bb7bde12c95","","500","500","fixation","","<div class = centerbox><div class = fixation>+</div></div>","none","500","test","","","","","","","","",""
"528","71","poldrack-categorize","76","182770","0.0-76.0","b4c5e961-c1cc-46d3-8fd4-2bb7bde12c95","","1500","250","stim","","<div class = centerbox><div class = stroop-stim style = ""color:green"">BLUE</div></div>","66,71,82","1500","test","true","71","500","incongruent","green","blue","","",""
"-1","-1","poldrack-single-stim","77","183529","0.0-77.0","b4c5e961-c1cc-46d3-8fd4-2bb7bde12c95","","500","500","fixation","","<div class = centerbox><div class = fixation>+</div></div>","none","500","test","","","","","","","","",""
"658","71","poldrack-categorize","78","186038","0.0-78.0","b4c5e961-c1cc-46d3-8fd4-2bb7bde12c95","","1500","250","stim","","<div class = centerbox><div class = stroop-stim style = ""color:green"">GREEN</div></div>","66,71,82","1500","test","true","71","500","congruent","green","green","","",""
"-1","-1","poldrack-single-stim","79","186797","0.0-79.0","b4c5e961-c1cc-46d3-8fd4-2bb7bde12c95","","500","500","fixation","","<div class = centerbox><div class = fixation>+</div></div>","none","500","test","","","","","","","","",""
"619","66","poldrack-categorize","80","189310","0.0-80.0","b4c5e961-c1cc-46d3-8fd4-2bb7bde12c95","","1500","250","stim","","<div class = centerbox><div class = stroop-stim style = ""color:blue"">BLUE</div></div>","66,71,82","1500","test","true","66","500","congruent","blue","blue","","",""
"-1","-1","poldrack-single-stim","81","190070","0.0-81.0","b4c5e961-c1cc-46d3-8fd4-2bb7bde12c95","","500","500","fixation","","<div class = centerbox><div class = fixation>+</div></div>","none","500","test","","","","","","","","",""
"1004","82","poldrack-categorize","82","192583","0.0-82.0","b4c5e961-c1cc-46d3-8fd4-2bb7bde12c95","","1500","250","stim","","<div class = centerbox><div class = stroop-stim style = ""color:red"">RED</div></div>","66,71,82","1500","test","true","82","500","congruent","red","red","","",""
"-1","-1","poldrack-single-stim","83","193344","0.0-83.0","b4c5e961-c1cc-46d3-8fd4-2bb7bde12c95","","500","500","fixation","","<div class = centerbox><div class = fixation>+</div></div>","none","500","test","","","","","","","","",""
"731","82","poldrack-categorize","84","195857","0.0-84.0","b4c5e961-c1cc-46d3-8fd4-2bb7bde12c95","","1500","250","stim","","<div class = centerbox><div class = stroop-stim style = ""color:red"">BLUE</div></div>","66,71,82","1500","test","true","82","500","incongruent","red","blue","","",""
"-1","-1","poldrack-single-stim","85","196618","0.0-85.0","b4c5e961-c1cc-46d3-8fd4-2bb7bde12c95","","500","500","fixation","","<div class = centerbox><div class = fixation>+</div></div>","none","500","test","","","","","","","","",""
"630","66","poldrack-categorize","86","199131","0.0-86.0","b4c5e961-c1cc-46d3-8fd4-2bb7bde12c95","","1500","250","stim","","<div class = centerbox><div class = stroop-stim style = ""color:blue"">BLUE</div></div>","66,71,82","1500","test","true","66","500","congruent","blue","blue","","",""
"-1","-1","poldrack-single-stim","87","199892","0.0-87.0","b4c5e961-c1cc-46d3-8fd4-2bb7bde12c95","","500","500","fixation","","<div class = centerbox><div class = fixation>+</div></div>","none","500","test","","","","","","","","",""
"529","66","poldrack-categorize","88","202405","0.0-88.0","b4c5e961-c1cc-46d3-8fd4-2bb7bde12c95","","1500","250","stim","","<div class = centerbox><div class = stroop-stim style = ""color:blue"">GREEN</div></div>","66,71,82","1500","test","true","66","500","incongruent","blue","green","","",""
"-1","-1","poldrack-single-stim","89","203165","0.0-89.0","b4c5e961-c1cc-46d3-8fd4-2bb7bde12c95","","500","500","fixation","","<div class = centerbox><div class = fixation>+</div></div>","none","500","test","","","","","","","","",""
"743","82","poldrack-categorize","90","205678","0.0-90.0","b4c5e961-c1cc-46d3-8fd4-2bb7bde12c95","","1500","250","stim","","<div class = centerbox><div class = stroop-stim style = ""color:red"">GREEN</div></div>","66,71,82","1500","test","true","82","500","incongruent","red","green","","",""
"-1","-1","poldrack-single-stim","91","206433","0.0-91.0","b4c5e961-c1cc-46d3-8fd4-2bb7bde12c95","","500","500","fixation","","<div class = centerbox><div class = fixation>+</div></div>","none","500","test","","","","","","","","",""
"523","82","poldrack-categorize","92","208941","0.0-92.0","b4c5e961-c1cc-46d3-8fd4-2bb7bde12c95","","1500","250","stim","","<div class = centerbox><div class = stroop-stim style = ""color:red"">BLUE</div></div>","66,71,82","1500","test","true","82","500","incongruent","red","blue","","",""
"-1","-1","poldrack-single-stim","93","209701","0.0-93.0","b4c5e961-c1cc-46d3-8fd4-2bb7bde12c95","","500","500","fixation","","<div class = centerbox><div class = fixation>+</div></div>","none","500","test","","","","","","","","",""
"676","71","poldrack-categorize","94","212215","0.0-94.0","b4c5e961-c1cc-46d3-8fd4-2bb7bde12c95","","1500","250","stim","","<div class = centerbox><div class = stroop-stim style = ""color:green"">GREEN</div></div>","66,71,82","1500","test","true","71","500","congruent","green","green","","",""
"-1","-1","poldrack-single-stim","95","212975","0.0-95.0","b4c5e961-c1cc-46d3-8fd4-2bb7bde12c95","","500","500","fixation","","<div class = centerbox><div class = fixation>+</div></div>","none","500","test","","","","","","","","",""
"653","66","poldrack-categorize","96","215488","0.0-96.0","b4c5e961-c1cc-46d3-8fd4-2bb7bde12c95","","1500","250","stim","","<div class = centerbox><div class = stroop-stim style = ""color:blue"">BLUE</div></div>","66,71,82","1500","test","true","66","500","congruent","blue","blue","","",""
"-1","-1","poldrack-single-stim","97","216249","0.0-97.0","b4c5e961-c1cc-46d3-8fd4-2bb7bde12c95","","500","500","fixation","","<div class = centerbox><div class = fixation>+</div></div>","none","500","test","","","","","","","","",""
"619","66","poldrack-categorize","98","218762","0.0-98.0","b4c5e961-c1cc-46d3-8fd4-2bb7bde12c95","","1500","250","stim","","<div class = centerbox><div class = stroop-stim style = ""color:red"">BLUE</div></div>","66,71,82","1500","test","false","82","500","incongruent","red","blue","","",""
"-1","-1","poldrack-single-stim","99","219520","0.0-99.0","b4c5e961-c1cc-46d3-8fd4-2bb7bde12c95","","500","500","fixation","","<div class = centerbox><div class = fixation>+</div></div>","none","500","test","","","","","","","","",""
"861","71","poldrack-categorize","100","222030","0.0-100.0","b4c5e961-c1cc-46d3-8fd4-2bb7bde12c95","","1500","250","stim","","<div class = centerbox><div class = stroop-stim style = ""color:green"">RED</div></div>","66,71,82","1500","test","true","71","500","incongruent","green","red","","",""
"-1","-1","poldrack-single-stim","101","222791","0.0-101.0","b4c5e961-c1cc-46d3-8fd4-2bb7bde12c95","","500","500","fixation","","<div class = centerbox><div class = fixation>+</div></div>","none","500","test","","","","","","","","",""
"715","66","poldrack-categorize","102","225304","0.0-102.0","b4c5e961-c1cc-46d3-8fd4-2bb7bde12c95","","1500","250","stim","","<div class = centerbox><div class = stroop-stim style = ""color:blue"">GREEN</div></div>","66,71,82","1500","test","true","66","500","incongruent","blue","green","","",""
"-1","-1","poldrack-single-stim","103","226059","0.0-103.0","b4c5e961-c1cc-46d3-8fd4-2bb7bde12c95","","500","500","fixation","","<div class = centerbox><div class = fixation>+</div></div>","none","500","test","","","","","","","","",""
"687","82","poldrack-categorize","104","228572","0.0-104.0","b4c5e961-c1cc-46d3-8fd4-2bb7bde12c95","","1500","250","stim","","<div class = centerbox><div class = stroop-stim style = ""color:red"">BLUE</div></div>","66,71,82","1500","test","true","82","500","incongruent","red","blue","","",""
"-1","-1","poldrack-single-stim","105","229333","0.0-105.0","b4c5e961-c1cc-46d3-8fd4-2bb7bde12c95","","500","500","fixation","","<div class = centerbox><div class = fixation>+</div></div>","none","500","test","","","","","","","","",""
"711","71","poldrack-categorize","106","231845","0.0-106.0","b4c5e961-c1cc-46d3-8fd4-2bb7bde12c95","","1500","250","stim","","<div class = centerbox><div class = stroop-stim style = ""color:green"">BLUE</div></div>","66,71,82","1500","test","true","71","500","incongruent","green","blue","","",""
"-1","-1","poldrack-single-stim","107","232601","0.0-107.0","b4c5e961-c1cc-46d3-8fd4-2bb7bde12c95","","500","500","fixation","","<div class = centerbox><div class = fixation>+</div></div>","none","500","test","","","","","","","","",""
"-1","-1","poldrack-categorize","108","235114","0.0-108.0","b4c5e961-c1cc-46d3-8fd4-2bb7bde12c95","","1500","250","stim","","<div class = centerbox><div class = stroop-stim style = ""color:blue"">BLUE</div></div>","66,71,82","1500","test","false","66","500","congruent","blue","blue","","",""
"-1","-1","poldrack-single-stim","109","235874","0.0-109.0","b4c5e961-c1cc-46d3-8fd4-2bb7bde12c95","","500","500","fixation","","<div class = centerbox><div class = fixation>+</div></div>","none","500","test","","","","","","","","",""
"772","82","poldrack-categorize","110","238388","0.0-110.0","b4c5e961-c1cc-46d3-8fd4-2bb7bde12c95","","1500","250","stim","","<div class = centerbox><div class = stroop-stim style = ""color:red"">RED</div></div>","66,71,82","1500","test","true","82","500","congruent","red","red","","",""
"-1","-1","poldrack-single-stim","111","239148","0.0-111.0","b4c5e961-c1cc-46d3-8fd4-2bb7bde12c95","","500","500","fixation","","<div class = centerbox><div class = fixation>+</div></div>","none","500","test","","","","","","","","",""
"-1","-1","poldrack-categorize","112","241661","0.0-112.0","b4c5e961-c1cc-46d3-8fd4-2bb7bde12c95","","1500","250","stim","","<div class = centerbox><div class = stroop-stim style = ""color:blue"">RED</div></div>","66,71,82","1500","test","false","66","500","incongruent","blue","red","","",""
"-1","-1","poldrack-single-stim","113","242416","0.0-113.0","b4c5e961-c1cc-46d3-8fd4-2bb7bde12c95","","500","500","fixation","","<div class = centerbox><div class = fixation>+</div></div>","none","500","test","","","","","","","","",""
"1082","66","poldrack-categorize","114","244929","0.0-114.0","b4c5e961-c1cc-46d3-8fd4-2bb7bde12c95","","1500","250","stim","","<div class = centerbox><div class = stroop-stim style = ""color:blue"">RED</div></div>","66,71,82","1500","test","true","66","500","incongruent","blue","red","","",""
"-1","-1","poldrack-single-stim","115","245690","0.0-115.0","b4c5e961-c1cc-46d3-8fd4-2bb7bde12c95","","500","500","fixation","","<div class = centerbox><div class = fixation>+</div></div>","none","500","test","","","","","","","","",""
"623","66","poldrack-categorize","116","248197","0.0-116.0","b4c5e961-c1cc-46d3-8fd4-2bb7bde12c95","","1500","250","stim","","<div class = centerbox><div class = stroop-stim style = ""color:blue"">BLUE</div></div>","66,71,82","1500","test","true","66","500","congruent","blue","blue","","",""
"-1","-1","poldrack-single-stim","117","248957","0.0-117.0","b4c5e961-c1cc-46d3-8fd4-2bb7bde12c95","","500","500","fixation","","<div class = centerbox><div class = fixation>+</div></div>","none","500","test","","","","","","","","",""
"852","71","poldrack-categorize","118","251471","0.0-118.0","b4c5e961-c1cc-46d3-8fd4-2bb7bde12c95","","1500","250","stim","","<div class = centerbox><div class = stroop-stim style = ""color:green"">BLUE</div></div>","66,71,82","1500","test","true","71","500","incongruent","green","blue","","",""
"-1","-1","poldrack-single-stim","119","252229","0.0-119.0","b4c5e961-c1cc-46d3-8fd4-2bb7bde12c95","","500","500","fixation","","<div class = centerbox><div class = fixation>+</div></div>","none","500","test","","","","","","","","",""
"1044","82","poldrack-categorize","120","254745","0.0-120.0","b4c5e961-c1cc-46d3-8fd4-2bb7bde12c95","","1500","250","stim","","<div class = centerbox><div class = stroop-stim style = ""color:red"">BLUE</div></div>","66,71,82","1500","test","true","82","500","incongruent","red","blue","","",""
"-1","-1","poldrack-single-stim","121","255506","0.0-121.0","b4c5e961-c1cc-46d3-8fd4-2bb7bde12c95","","500","500","fixation","","<div class = centerbox><div class = fixation>+</div></div>","none","500","test","","","","","","","","",""
"987","66","poldrack-categorize","122","258019","0.0-122.0","b4c5e961-c1cc-46d3-8fd4-2bb7bde12c95","","1500","250","stim","","<div class = centerbox><div class = stroop-stim style = ""color:blue"">GREEN</div></div>","66,71,82","1500","test","true","66","500","incongruent","blue","green","","",""
"-1","-1","poldrack-single-stim","123","258779","0.0-123.0","b4c5e961-c1cc-46d3-8fd4-2bb7bde12c95","","500","500","fixation","","<div class = centerbox><div class = fixation>+</div></div>","none","500","test","","","","","","","","",""
"842","71","poldrack-categorize","124","261287","0.0-124.0","b4c5e961-c1cc-46d3-8fd4-2bb7bde12c95","","1500","250","stim","","<div class = centerbox><div class = stroop-stim style = ""color:green"">RED</div></div>","66,71,82","1500","test","true","71","500","incongruent","green","red","","",""
"-1","-1","poldrack-single-stim","125","262047","0.0-125.0","b4c5e961-c1cc-46d3-8fd4-2bb7bde12c95","","500","500","fixation","","<div class = centerbox><div class = fixation>+</div></div>","none","500","test","","","","","","","","",""
"947","71","poldrack-categorize","126","264557","0.0-126.0","b4c5e961-c1cc-46d3-8fd4-2bb7bde12c95","","1500","250","stim","","<div class = centerbox><div class = stroop-stim style = ""color:green"">GREEN</div></div>","66,71,82","1500","test","true","71","500","congruent","green","green","","",""
"-1","-1","poldrack-single-stim","127","265315","0.0-127.0","b4c5e961-c1cc-46d3-8fd4-2bb7bde12c95","","500","500","fixation","","<div class = centerbox><div class = fixation>+</div></div>","none","500","test","","","","","","","","",""
"841","66","poldrack-categorize","128","267829","0.0-128.0","b4c5e961-c1cc-46d3-8fd4-2bb7bde12c95","","1500","250","stim","","<div class = centerbox><div class = stroop-stim style = ""color:blue"">GREEN</div></div>","66,71,82","1500","test","true","66","500","incongruent","blue","green","","",""
"-1","-1","poldrack-single-stim","129","268583","0.0-129.0","b4c5e961-c1cc-46d3-8fd4-2bb7bde12c95","","500","500","fixation","","<div class = centerbox><div class = fixation>+</div></div>","none","500","test","","","","","","","","",""
"725","71","poldrack-categorize","130","271091","0.0-130.0","b4c5e961-c1cc-46d3-8fd4-2bb7bde12c95","","1500","250","stim","","<div class = centerbox><div class = stroop-stim style = ""color:green"">RED</div></div>","66,71,82","1500","test","true","71","500","incongruent","green","red","","",""
"-1","-1","poldrack-single-stim","131","271846","0.0-131.0","b4c5e961-c1cc-46d3-8fd4-2bb7bde12c95","","500","500","fixation","","<div class = centerbox><div class = fixation>+</div></div>","none","500","test","","","","","","","","",""
"802","66","poldrack-categorize","132","274359","0.0-132.0","b4c5e961-c1cc-46d3-8fd4-2bb7bde12c95","","1500","250","stim","","<div class = centerbox><div class = stroop-stim style = ""color:blue"">GREEN</div></div>","66,71,82","1500","test","true","66","500","incongruent","blue","green","","",""
"-1","-1","poldrack-single-stim","133","275119","0.0-133.0","b4c5e961-c1cc-46d3-8fd4-2bb7bde12c95","","500","500","fixation","","<div class = centerbox><div class = fixation>+</div></div>","none","500","test","","","","","","","","",""
"579","66","poldrack-categorize","134","277633","0.0-134.0","b4c5e961-c1cc-46d3-8fd4-2bb7bde12c95","","1500","250","stim","","<div class = centerbox><div class = stroop-stim style = ""color:blue"">RED</div></div>","66,71,82","1500","test","true","66","500","incongruent","blue","red","","",""
"-1","-1","poldrack-single-stim","135","278394","0.0-135.0","b4c5e961-c1cc-46d3-8fd4-2bb7bde12c95","","500","500","fixation","","<div class = centerbox><div class = fixation>+</div></div>","none","500","test","","","","","","","","",""
"611","71","poldrack-categorize","136","280906","0.0-136.0","b4c5e961-c1cc-46d3-8fd4-2bb7bde12c95","","1500","250","stim","","<div class = centerbox><div class = stroop-stim style = ""color:green"">GREEN</div></div>","66,71,82","1500","test","true","71","500","congruent","green","green","","",""
"-1","-1","poldrack-single-stim","137","281667","0.0-137.0","b4c5e961-c1cc-46d3-8fd4-2bb7bde12c95","","500","500","fixation","","<div class = centerbox><div class = fixation>+</div></div>","none","500","test","","","","","","","","",""
"599","66","poldrack-categorize","138","284180","0.0-138.0","b4c5e961-c1cc-46d3-8fd4-2bb7bde12c95","","1500","250","stim","","<div class = centerbox><div class = stroop-stim style = ""color:blue"">BLUE</div></div>","66,71,82","1500","test","true","66","500","congruent","blue","blue","","",""
"-1","-1","poldrack-single-stim","139","284941","0.0-139.0","b4c5e961-c1cc-46d3-8fd4-2bb7bde12c95","","500","500","fixation","","<div class = centerbox><div class = fixation>+</div></div>","none","500","test","","","","","","","","",""
"925","71","poldrack-categorize","140","287454","0.0-140.0","b4c5e961-c1cc-46d3-8fd4-2bb7bde12c95","","1500","250","stim","","<div class = centerbox><div class = stroop-stim style = ""color:green"">GREEN</div></div>","66,71,82","1500","test","true","71","500","congruent","green","green","","",""
"-1","-1","poldrack-single-stim","141","288215","0.0-141.0","b4c5e961-c1cc-46d3-8fd4-2bb7bde12c95","","500","500","fixation","","<div class = centerbox><div class = fixation>+</div></div>","none","500","test","","","","","","","","",""
"891","82","poldrack-categorize","142","290728","0.0-142.0","b4c5e961-c1cc-46d3-8fd4-2bb7bde12c95","","1500","250","stim","","<div class = centerbox><div class = stroop-stim style = ""color:red"">BLUE</div></div>","66,71,82","1500","test","true","82","500","incongruent","red","blue","","",""
"-1","-1","poldrack-single-stim","143","291488","0.0-143.0","b4c5e961-c1cc-46d3-8fd4-2bb7bde12c95","","500","500","fixation","","<div class = centerbox><div class = fixation>+</div></div>","none","500","test","","","","","","","","",""
"544","82","poldrack-categorize","144","294002","0.0-144.0","b4c5e961-c1cc-46d3-8fd4-2bb7bde12c95","","1500","250","stim","","<div class = centerbox><div class = stroop-stim style = ""color:red"">RED</div></div>","66,71,82","1500","test","true","82","500","congruent","red","red","","",""
"-1","-1","poldrack-single-stim","145","294757","0.0-145.0","b4c5e961-c1cc-46d3-8fd4-2bb7bde12c95","","500","500","fixation","","<div class = centerbox><div class = fixation>+</div></div>","none","500","test","","","","","","","","",""
"527","82","poldrack-categorize","146","297270","0.0-146.0","b4c5e961-c1cc-46d3-8fd4-2bb7bde12c95","","1500","250","stim","","<div class = centerbox><div class = stroop-stim style = ""color:red"">RED</div></div>","66,71,82","1500","test","true","82","500","congruent","red","red","","",""
"-1","-1","poldrack-single-stim","147","298030","0.0-147.0","b4c5e961-c1cc-46d3-8fd4-2bb7bde12c95","","500","500","fixation","","<div class = centerbox><div class = fixation>+</div></div>","none","500","test","","","","","","","","",""
"628","66","poldrack-categorize","148","300538","0.0-148.0","b4c5e961-c1cc-46d3-8fd4-2bb7bde12c95","","1500","250","stim","","<div class = centerbox><div class = stroop-stim style = ""color:blue"">BLUE</div></div>","66,71,82","1500","test","true","66","500","congruent","blue","blue","","",""
"-1","-1","poldrack-single-stim","149","301298","0.0-149.0","b4c5e961-c1cc-46d3-8fd4-2bb7bde12c95","","500","500","fixation","","<div class = centerbox><div class = fixation>+</div></div>","none","500","test","","","","","","","","",""
"611","71","poldrack-categorize","150","303812","0.0-150.0","b4c5e961-c1cc-46d3-8fd4-2bb7bde12c95","","1500","250","stim","","<div class = centerbox><div class = stroop-stim style = ""color:green"">GREEN</div></div>","66,71,82","1500","test","true","71","500","congruent","green","green","","",""
"-1","-1","poldrack-single-stim","151","304572","0.0-151.0","b4c5e961-c1cc-46d3-8fd4-2bb7bde12c95","","500","500","fixation","","<div class = centerbox><div class = fixation>+</div></div>","none","500","test","","","","","","","","",""
"893","82","poldrack-categorize","152","307080","0.0-152.0","b4c5e961-c1cc-46d3-8fd4-2bb7bde12c95","","1500","250","stim","","<div class = centerbox><div class = stroop-stim style = ""color:red"">GREEN</div></div>","66,71,82","1500","test","true","82","500","incongruent","red","green","","",""
"-1","-1","poldrack-single-stim","153","307840","0.0-153.0","b4c5e961-c1cc-46d3-8fd4-2bb7bde12c95","","500","500","fixation","","<div class = centerbox><div class = fixation>+</div></div>","none","500","test","","","","","","","","",""
"482","82","poldrack-categorize","154","310353","0.0-154.0","b4c5e961-c1cc-46d3-8fd4-2bb7bde12c95","","1500","250","stim","","<div class = centerbox><div class = stroop-stim style = ""color:red"">RED</div></div>","66,71,82","1500","test","true","82","500","congruent","red","red","","",""
"-1","-1","poldrack-single-stim","155","311108","0.0-155.0","b4c5e961-c1cc-46d3-8fd4-2bb7bde12c95","","500","500","fixation","","<div class = centerbox><div class = fixation>+</div></div>","none","500","test","","","","","","","","",""
"634","82","poldrack-categorize","156","313621","0.0-156.0","b4c5e961-c1cc-46d3-8fd4-2bb7bde12c95","","1500","250","stim","","<div class = centerbox><div class = stroop-stim style = ""color:red"">RED</div></div>","66,71,82","1500","test","true","82","500","congruent","red","red","","",""
"-1","-1","poldrack-single-stim","157","314382","0.0-157.0","b4c5e961-c1cc-46d3-8fd4-2bb7bde12c95","","500","500","fixation","","<div class = centerbox><div class = fixation>+</div></div>","none","500","test","","","","","","","","",""
"611","82","poldrack-categorize","158","316895","0.0-158.0","b4c5e961-c1cc-46d3-8fd4-2bb7bde12c95","","1500","250","stim","","<div class = centerbox><div class = stroop-stim style = ""color:red"">RED</div></div>","66,71,82","1500","test","true","82","500","congruent","red","red","","",""
"-1","-1","poldrack-single-stim","159","317656","0.0-159.0","b4c5e961-c1cc-46d3-8fd4-2bb7bde12c95","","500","500","fixation","","<div class = centerbox><div class = fixation>+</div></div>","none","500","test","","","","","","","","",""
"658","66","poldrack-categorize","160","320169","0.0-160.0","b4c5e961-c1cc-46d3-8fd4-2bb7bde12c95","","1500","250","stim","","<div class = centerbox><div class = stroop-stim style = ""color:blue"">RED</div></div>","66,71,82","1500","test","true","66","500","incongruent","blue","red","","",""
"-1","-1","poldrack-single-stim","161","320924","0.0-161.0","b4c5e961-c1cc-46d3-8fd4-2bb7bde12c95","","500","500","fixation","","<div class = centerbox><div class = fixation>+</div></div>","none","500","test","","","","","","","","",""
"640","82","poldrack-categorize","162","323437","0.0-162.0","b4c5e961-c1cc-46d3-8fd4-2bb7bde12c95","","1500","250","stim","","<div class = centerbox><div class = stroop-stim style = ""color:red"">RED</div></div>","66,71,82","1500","test","true","82","500","congruent","red","red","","",""
"-1","-1","poldrack-single-stim","163","324198","0.0-163.0","b4c5e961-c1cc-46d3-8fd4-2bb7bde12c95","","500","500","fixation","","<div class = centerbox><div class = fixation>+</div></div>","none","500","test","","","","","","","","",""
"493","82","poldrack-categorize","164","326705","0.0-164.0","b4c5e961-c1cc-46d3-8fd4-2bb7bde12c95","","1500","250","stim","","<div class = centerbox><div class = stroop-stim style = ""color:red"">GREEN</div></div>","66,71,82","1500","test","true","82","500","incongruent","red","green","","",""
"-1","-1","poldrack-single-stim","165","327466","0.0-165.0","b4c5e961-c1cc-46d3-8fd4-2bb7bde12c95","","500","500","fixation","","<div class = centerbox><div class = fixation>+</div></div>","none","500","test","","","","","","","","",""
"489","82","poldrack-categorize","166","329979","0.0-166.0","b4c5e961-c1cc-46d3-8fd4-2bb7bde12c95","","1500","250","stim","","<div class = centerbox><div class = stroop-stim style = ""color:red"">RED</div></div>","66,71,82","1500","test","true","82","500","congruent","red","red","","",""
"-1","-1","poldrack-single-stim","167","330739","0.0-167.0","b4c5e961-c1cc-46d3-8fd4-2bb7bde12c95","","500","500","fixation","","<div class = centerbox><div class = fixation>+</div></div>","none","500","test","","","","","","","","",""
"804","71","poldrack-categorize","168","333251","0.0-168.0","b4c5e961-c1cc-46d3-8fd4-2bb7bde12c95","","1500","250","stim","","<div class = centerbox><div class = stroop-stim style = ""color:green"">RED</div></div>","66,71,82","1500","test","true","71","500","incongruent","green","red","","",""
"-1","-1","poldrack-single-stim","169","334007","0.0-169.0","b4c5e961-c1cc-46d3-8fd4-2bb7bde12c95","","500","500","fixation","","<div class = centerbox><div class = fixation>+</div></div>","none","500","test","","","","","","","","",""
"899","66","poldrack-categorize","170","336521","0.0-170.0","b4c5e961-c1cc-46d3-8fd4-2bb7bde12c95","","1500","250","stim","","<div class = centerbox><div class = stroop-stim style = ""color:green"">BLUE</div></div>","66,71,82","1500","test","false","71","500","incongruent","green","blue","","",""
"-1","-1","poldrack-single-stim","171","337281","0.0-171.0","b4c5e961-c1cc-46d3-8fd4-2bb7bde12c95","","500","500","fixation","","<div class = centerbox><div class = fixation>+</div></div>","none","500","test","","","","","","","","",""
"978","82","poldrack-categorize","172","339794","0.0-172.0","b4c5e961-c1cc-46d3-8fd4-2bb7bde12c95","","1500","250","stim","","<div class = centerbox><div class = stroop-stim style = ""color:red"">BLUE</div></div>","66,71,82","1500","test","true","82","500","incongruent","red","blue","","",""
"-1","-1","poldrack-single-stim","173","340555","0.0-173.0","b4c5e961-c1cc-46d3-8fd4-2bb7bde12c95","","500","500","fixation","","<div class = centerbox><div class = fixation>+</div></div>","none","500","test","","","","","","","","",""
"607","82","poldrack-categorize","174","343068","0.0-174.0","b4c5e961-c1cc-46d3-8fd4-2bb7bde12c95","","1500","250","stim","","<div class = centerbox><div class = stroop-stim style = ""color:red"">RED</div></div>","66,71,82","1500","test","true","82","500","congruent","red","red","","",""
"-1","-1","poldrack-single-stim","175","343829","0.0-175.0","b4c5e961-c1cc-46d3-8fd4-2bb7bde12c95","","500","500","fixation","","<div class = centerbox><div class = fixation>+</div></div>","none","500","test","","","","","","","","",""
"1103","66","poldrack-categorize","176","346336","0.0-176.0","b4c5e961-c1cc-46d3-8fd4-2bb7bde12c95","","1500","250","stim","","<div class = centerbox><div class = stroop-stim style = ""color:blue"">RED</div></div>","66,71,82","1500","test","true","66","500","incongruent","blue","red","","",""
"-1","-1","poldrack-single-stim","177","347097","0.0-177.0","b4c5e961-c1cc-46d3-8fd4-2bb7bde12c95","","500","500","fixation","","<div class = centerbox><div class = fixation>+</div></div>","none","500","test","","","","","","","","",""
"714","66","poldrack-categorize","178","349610","0.0-178.0","b4c5e961-c1cc-46d3-8fd4-2bb7bde12c95","","1500","250","stim","","<div class = centerbox><div class = stroop-stim style = ""color:blue"">GREEN</div></div>","66,71,82","1500","test","true","66","500","incongruent","blue","green","","",""
"-1","-1","poldrack-single-stim","179","350371","0.0-179.0","b4c5e961-c1cc-46d3-8fd4-2bb7bde12c95","","500","500","fixation","","<div class = centerbox><div class = fixation>+</div></div>","none","500","test","","","","","","","","",""
"602","71","poldrack-categorize","180","352884","0.0-180.0","b4c5e961-c1cc-46d3-8fd4-2bb7bde12c95","","1500","250","stim","","<div class = centerbox><div class = stroop-stim style = ""color:green"">GREEN</div></div>","66,71,82","1500","test","true","71","500","congruent","green","green","","",""
"-1","-1","poldrack-single-stim","181","353637","0.0-181.0","b4c5e961-c1cc-46d3-8fd4-2bb7bde12c95","","500","500","fixation","","<div class = centerbox><div class = fixation>+</div></div>","none","500","test","","","","","","","","",""
"624","66","poldrack-categorize","182","356145","0.0-182.0","b4c5e961-c1cc-46d3-8fd4-2bb7bde12c95","","1500","250","stim","","<div class = centerbox><div class = stroop-stim style = ""color:blue"">BLUE</div></div>","66,71,82","1500","test","true","66","500","congruent","blue","blue","","",""
"-1","-1","poldrack-single-stim","183","356907","0.0-183.0","b4c5e961-c1cc-46d3-8fd4-2bb7bde12c95","","500","500","fixation","","<div class = centerbox><div class = fixation>+</div></div>","none","500","test","","","","","","","","",""
"737","71","poldrack-categorize","184","359420","0.0-184.0","b4c5e961-c1cc-46d3-8fd4-2bb7bde12c95","","1500","250","stim","","<div class = centerbox><div class = stroop-stim style = ""color:green"">GREEN</div></div>","66,71,82","1500","test","true","71","500","congruent","green","green","","",""
"-1","-1","poldrack-single-stim","185","360177","0.0-185.0","b4c5e961-c1cc-46d3-8fd4-2bb7bde12c95","","500","500","fixation","","<div class = centerbox><div class = fixation>+</div></div>","none","500","test","","","","","","","","",""
"732","66","poldrack-categorize","186","362688","0.0-186.0","b4c5e961-c1cc-46d3-8fd4-2bb7bde12c95","","1500","250","stim","","<div class = centerbox><div class = stroop-stim style = ""color:blue"">BLUE</div></div>","66,71,82","1500","test","true","66","500","congruent","blue","blue","","",""
"-1","-1","poldrack-single-stim","187","363448","0.0-187.0","b4c5e961-c1cc-46d3-8fd4-2bb7bde12c95","","500","500","fixation","","<div class = centerbox><div class = fixation>+</div></div>","none","500","test","","","","","","","","",""
"946","82","poldrack-categorize","188","365956","0.0-188.0","b4c5e961-c1cc-46d3-8fd4-2bb7bde12c95","","1500","250","stim","","<div class = centerbox><div class = stroop-stim style = ""color:red"">GREEN</div></div>","66,71,82","1500","test","true","82","500","incongruent","red","green","","",""
"-1","-1","poldrack-single-stim","189","366716","0.0-189.0","b4c5e961-c1cc-46d3-8fd4-2bb7bde12c95","","500","500","fixation","","<div class = centerbox><div class = fixation>+</div></div>","none","500","test","","","","","","","","",""
"625","71","poldrack-categorize","190","369230","0.0-190.0","b4c5e961-c1cc-46d3-8fd4-2bb7bde12c95","","1500","250","stim","","<div class = centerbox><div class = stroop-stim style = ""color:green"">GREEN</div></div>","66,71,82","1500","test","true","71","500","congruent","green","green","","",""
"-1","-1","poldrack-single-stim","191","369986","0.0-191.0","b4c5e961-c1cc-46d3-8fd4-2bb7bde12c95","","500","500","fixation","","<div class = centerbox><div class = fixation>+</div></div>","none","500","test","","","","","","","","",""
"879","66","poldrack-categorize","192","372498","0.0-192.0","b4c5e961-c1cc-46d3-8fd4-2bb7bde12c95","","1500","250","stim","","<div class = centerbox><div class = stroop-stim style = ""color:green"">BLUE</div></div>","66,71,82","1500","test","false","71","500","incongruent","green","blue","","",""
"-1","-1","poldrack-single-stim","193","373258","0.0-193.0","b4c5e961-c1cc-46d3-8fd4-2bb7bde12c95","","500","500","fixation","","<div class = centerbox><div class = fixation>+</div></div>","none","500","test","","","","","","","","",""
"743","71","poldrack-categorize","194","375769","0.0-194.0","b4c5e961-c1cc-46d3-8fd4-2bb7bde12c95","","1500","250","stim","","<div class = centerbox><div class = stroop-stim style = ""color:green"">RED</div></div>","66,71,82","1500","test","true","71","500","incongruent","green","red","","",""
"-1","-1","poldrack-single-stim","195","376526","0.0-195.0","b4c5e961-c1cc-46d3-8fd4-2bb7bde12c95","","500","500","fixation","","<div class = centerbox><div class = fixation>+</div></div>","none","500","test","","","","","","","","",""
"659","82","poldrack-categorize","196","379040","0.0-196.0","b4c5e961-c1cc-46d3-8fd4-2bb7bde12c95","","1500","250","stim","","<div class = centerbox><div class = stroop-stim style = ""color:red"">GREEN</div></div>","66,71,82","1500","test","true","82","500","incongruent","red","green","","",""
"-1","-1","poldrack-single-stim","197","379800","0.0-197.0","b4c5e961-c1cc-46d3-8fd4-2bb7bde12c95","","500","500","fixation","","<div class = centerbox><div class = fixation>+</div></div>","none","500","test","","","","","","","","",""
"457","82","poldrack-categorize","198","382313","0.0-198.0","b4c5e961-c1cc-46d3-8fd4-2bb7bde12c95","","1500","250","stim","","<div class = centerbox><div class = stroop-stim style = ""color:red"">RED</div></div>","66,71,82","1500","test","true","82","500","congruent","red","red","","",""
"-1","-1","poldrack-single-stim","199","383074","0.0-199.0","b4c5e961-c1cc-46d3-8fd4-2bb7bde12c95","","500","500","fixation","","<div class = centerbox><div class = fixation>+</div></div>","none","500","test","","","","","","","","",""
"670","66","poldrack-categorize","200","385585","0.0-200.0","b4c5e961-c1cc-46d3-8fd4-2bb7bde12c95","","1500","250","stim","","<div class = centerbox><div class = stroop-stim style = ""color:blue"">GREEN</div></div>","66,71,82","1500","test","true","66","500","incongruent","blue","green","","",""
"-1","-1","poldrack-single-stim","201","386342","0.0-201.0","b4c5e961-c1cc-46d3-8fd4-2bb7bde12c95","","500","500","fixation","","<div class = centerbox><div class = fixation>+</div></div>","none","500","test","","","","","","","","",""
"1351","71","poldrack-categorize","202","388855","0.0-202.0","b4c5e961-c1cc-46d3-8fd4-2bb7bde12c95","","1500","250","stim","","<div class = centerbox><div class = stroop-stim style = ""color:green"">RED</div></div>","66,71,82","1500","test","true","71","500","incongruent","green","red","","",""
"-1","-1","poldrack-single-stim","203","389615","0.0-203.0","b4c5e961-c1cc-46d3-8fd4-2bb7bde12c95","","500","500","fixation","","<div class = centerbox><div class = fixation>+</div></div>","none","500","test","","","","","","","","",""
"677","66","poldrack-categorize","204","392129","0.0-204.0","b4c5e961-c1cc-46d3-8fd4-2bb7bde12c95","","1500","250","stim","","<div class = centerbox><div class = stroop-stim style = ""color:blue"">BLUE</div></div>","66,71,82","1500","test","true","66","500","congruent","blue","blue","","",""
"-1","-1","poldrack-single-stim","205","392889","0.0-205.0","b4c5e961-c1cc-46d3-8fd4-2bb7bde12c95","","500","500","fixation","","<div class = centerbox><div class = fixation>+</div></div>","none","500","test","","","","","","","","",""
"620","66","poldrack-categorize","206","395403","0.0-206.0","b4c5e961-c1cc-46d3-8fd4-2bb7bde12c95","","1500","250","stim","","<div class = centerbox><div class = stroop-stim style = ""color:blue"">RED</div></div>","66,71,82","1500","test","true","66","500","incongruent","blue","red","","",""
"-1","-1","poldrack-single-stim","207","396162","0.0-207.0","b4c5e961-c1cc-46d3-8fd4-2bb7bde12c95","","500","500","fixation","","<div class = centerbox><div class = fixation>+</div></div>","none","500","test","","","","","","","","",""
"1107","71","poldrack-categorize","208","398671","0.0-208.0","b4c5e961-c1cc-46d3-8fd4-2bb7bde12c95","","1500","250","stim","","<div class = centerbox><div class = stroop-stim style = ""color:green"">BLUE</div></div>","66,71,82","1500","test","true","71","500","incongruent","green","blue","","",""
"-1","-1","poldrack-single-stim","209","399431","0.0-209.0","b4c5e961-c1cc-46d3-8fd4-2bb7bde12c95","","500","500","fixation","","<div class = centerbox><div class = fixation>+</div></div>","none","500","test","","","","","","","","",""
"728","82","poldrack-categorize","210","401945","0.0-210.0","b4c5e961-c1cc-46d3-8fd4-2bb7bde12c95","","1500","250","stim","","<div class = centerbox><div class = stroop-stim style = ""color:red"">GREEN</div></div>","66,71,82","1500","test","true","82","500","incongruent","red","green","","",""
"-1","-1","poldrack-single-stim","211","402705","0.0-211.0","b4c5e961-c1cc-46d3-8fd4-2bb7bde12c95","","500","500","fixation","","<div class = centerbox><div class = fixation>+</div></div>","none","500","test","","","","","","","","",""
"682","66","poldrack-categorize","212","405217","0.0-212.0","b4c5e961-c1cc-46d3-8fd4-2bb7bde12c95","","1500","250","stim","","<div class = centerbox><div class = stroop-stim style = ""color:blue"">RED</div></div>","66,71,82","1500","test","true","66","500","incongruent","blue","red","","",""
"-1","-1","poldrack-single-stim","213","405969","0.0-213.0","b4c5e961-c1cc-46d3-8fd4-2bb7bde12c95","","500","500","fixation","","<div class = centerbox><div class = fixation>+</div></div>","none","500","test","","","","","","","","",""
"703","71","poldrack-categorize","214","408479","0.0-214.0","b4c5e961-c1cc-46d3-8fd4-2bb7bde12c95","","1500","250","stim","","<div class = centerbox><div class = stroop-stim style = ""color:green"">GREEN</div></div>","66,71,82","1500","test","true","71","500","congruent","green","green","","",""
"-1","-1","poldrack-single-stim","215","409235","0.0-215.0","b4c5e961-c1cc-46d3-8fd4-2bb7bde12c95","","500","500","fixation","","<div class = centerbox><div class = fixation>+</div></div>","none","500","test","","","","","","","","",""
"610","66","poldrack-categorize","216","411749","0.0-216.0","b4c5e961-c1cc-46d3-8fd4-2bb7bde12c95","","1500","250","stim","","<div class = centerbox><div class = stroop-stim style = ""color:blue"">BLUE</div></div>","66,71,82","1500","test","true","66","500","congruent","blue","blue","","",""
"-1","-1","poldrack-single-stim","217","412509","0.0-217.0","b4c5e961-c1cc-46d3-8fd4-2bb7bde12c95","","500","500","fixation","","<div class = centerbox><div class = fixation>+</div></div>","none","500","test","","","","","","","","",""
"970","71","poldrack-categorize","218","415022","0.0-218.0","b4c5e961-c1cc-46d3-8fd4-2bb7bde12c95","","1500","250","stim","","<div class = centerbox><div class = stroop-stim style = ""color:green"">BLUE</div></div>","66,71,82","1500","test","true","71","500","incongruent","green","blue","","",""
"-1","-1","poldrack-single-stim","219","415783","0.0-219.0","b4c5e961-c1cc-46d3-8fd4-2bb7bde12c95","","500","500","fixation","","<div class = centerbox><div class = fixation>+</div></div>","none","500","test","","","","","","","","",""
"902","82","poldrack-categorize","220","418292","0.0-220.0","b4c5e961-c1cc-46d3-8fd4-2bb7bde12c95","","1500","250","stim","","<div class = centerbox><div class = stroop-stim style = ""color:red"">GREEN</div></div>","66,71,82","1500","test","true","82","500","incongruent","red","green","","",""
"-1","-1","poldrack-single-stim","221","419051","0.0-221.0","b4c5e961-c1cc-46d3-8fd4-2bb7bde12c95","","500","500","fixation","","<div class = centerbox><div class = fixation>+</div></div>","none","500","test","","","","","","","","",""
"717","71","poldrack-categorize","222","421558","0.0-222.0","b4c5e961-c1cc-46d3-8fd4-2bb7bde12c95","","1500","250","stim","","<div class = centerbox><div class = stroop-stim style = ""color:green"">RED</div></div>","66,71,82","1500","test","true","71","500","incongruent","green","red","","",""
"-1","-1","poldrack-single-stim","223","422319","0.0-223.0","b4c5e961-c1cc-46d3-8fd4-2bb7bde12c95","","500","500","fixation","","<div class = centerbox><div class = fixation>+</div></div>","none","500","test","","","","","","","","",""
"621","82","poldrack-categorize","224","424832","0.0-224.0","b4c5e961-c1cc-46d3-8fd4-2bb7bde12c95","","1500","250","stim","","<div class = centerbox><div class = stroop-stim style = ""color:red"">RED</div></div>","66,71,82","1500","test","true","82","500","congruent","red","red","","",""
"-1","-1","poldrack-single-stim","225","425593","0.0-225.0","b4c5e961-c1cc-46d3-8fd4-2bb7bde12c95","","500","500","fixation","","<div class = centerbox><div class = fixation>+</div></div>","none","500","test","","","","","","","","",""
"634","71","poldrack-categorize","226","428106","0.0-226.0","b4c5e961-c1cc-46d3-8fd4-2bb7bde12c95","","1500","250","stim","","<div class = centerbox><div class = stroop-stim style = ""color:green"">GREEN</div></div>","66,71,82","1500","test","true","71","500","congruent","green","green","","",""
"-1","-1","poldrack-single-stim","227","428866","0.0-227.0","b4c5e961-c1cc-46d3-8fd4-2bb7bde12c95","","500","500","fixation","","<div class = centerbox><div class = fixation>+</div></div>","none","500","test","","","","","","","","",""
"622","71","poldrack-categorize","228","431380","0.0-228.0","b4c5e961-c1cc-46d3-8fd4-2bb7bde12c95","","1500","250","stim","","<div class = centerbox><div class = stroop-stim style = ""color:green"">GREEN</div></div>","66,71,82","1500","test","true","71","500","congruent","green","green","","",""
"-1","-1","poldrack-single-stim","229","432137","0.0-229.0","b4c5e961-c1cc-46d3-8fd4-2bb7bde12c95","","500","500","fixation","","<div class = centerbox><div class = fixation>+</div></div>","none","500","test","","","","","","","","",""
"625","66","poldrack-categorize","230","434648","0.0-230.0","b4c5e961-c1cc-46d3-8fd4-2bb7bde12c95","","1500","250","stim","","<div class = centerbox><div class = stroop-stim style = ""color:blue"">BLUE</div></div>","66,71,82","1500","test","true","66","500","congruent","blue","blue","","",""
"-1","-1","poldrack-single-stim","231","435408","0.0-231.0","b4c5e961-c1cc-46d3-8fd4-2bb7bde12c95","","500","500","fixation","","<div class = centerbox><div class = fixation>+</div></div>","none","500","test","","","","","","","","",""
"988","71","poldrack-categorize","232","437921","0.0-232.0","b4c5e961-c1cc-46d3-8fd4-2bb7bde12c95","","1500","250","stim","","<div class = centerbox><div class = stroop-stim style = ""color:green"">RED</div></div>","66,71,82","1500","test","true","71","500","incongruent","green","red","","",""
"-1","-1","poldrack-single-stim","233","438676","0.0-233.0","b4c5e961-c1cc-46d3-8fd4-2bb7bde12c95","","500","500","fixation","","<div class = centerbox><div class = fixation>+</div></div>","none","500","test","","","","","","","","",""
"600","82","poldrack-categorize","234","441189","0.0-234.0","b4c5e961-c1cc-46d3-8fd4-2bb7bde12c95","","1500","250","stim","","<div class = centerbox><div class = stroop-stim style = ""color:red"">GREEN</div></div>","66,71,82","1500","test","true","82","500","incongruent","red","green","","",""
"-1","-1","poldrack-single-stim","235","441950","0.0-235.0","b4c5e961-c1cc-46d3-8fd4-2bb7bde12c95","","500","500","fixation","","<div class = centerbox><div class = fixation>+</div></div>","none","500","test","","","","","","","","",""
"667","82","poldrack-categorize","236","444463","0.0-236.0","b4c5e961-c1cc-46d3-8fd4-2bb7bde12c95","","1500","250","stim","","<div class = centerbox><div class = stroop-stim style = ""color:red"">RED</div></div>","66,71,82","1500","test","true","82","500","congruent","red","red","","",""
"-1","-1","poldrack-single-stim","237","445224","0.0-237.0","b4c5e961-c1cc-46d3-8fd4-2bb7bde12c95","","500","500","fixation","","<div class = centerbox><div class = fixation>+</div></div>","none","500","test","","","","","","","","",""
"681","66","poldrack-categorize","238","447737","0.0-238.0","b4c5e961-c1cc-46d3-8fd4-2bb7bde12c95","","1500","250","stim","","<div class = centerbox><div class = stroop-stim style = ""color:blue"">BLUE</div></div>","66,71,82","1500","test","true","66","500","congruent","blue","blue","","",""
"-1","-1","poldrack-single-stim","239","448498","0.0-239.0","b4c5e961-c1cc-46d3-8fd4-2bb7bde12c95","","500","500","fixation","","<div class = centerbox><div class = fixation>+</div></div>","none","500","test","","","","","","","","",""
"735","71","poldrack-categorize","240","451011","0.0-240.0","b4c5e961-c1cc-46d3-8fd4-2bb7bde12c95","","1500","250","stim","","<div class = centerbox><div class = stroop-stim style = ""color:green"">GREEN</div></div>","66,71,82","1500","test","true","71","500","congruent","green","green","","",""
"-1","-1","poldrack-single-stim","241","451771","0.0-241.0","b4c5e961-c1cc-46d3-8fd4-2bb7bde12c95","","500","500","fixation","","<div class = centerbox><div class = fixation>+</div></div>","none","500","test","","","","","","","","",""
"758","66","poldrack-categorize","242","454285","0.0-242.0","b4c5e961-c1cc-46d3-8fd4-2bb7bde12c95","","1500","250","stim","","<div class = centerbox><div class = stroop-stim style = ""color:blue"">BLUE</div></div>","66,71,82","1500","test","true","66","500","congruent","blue","blue","","",""
"-1","-1","poldrack-single-stim","243","455045","0.0-243.0","b4c5e961-c1cc-46d3-8fd4-2bb7bde12c95","","500","500","fixation","","<div class = centerbox><div class = fixation>+</div></div>","none","500","test","","","","","","","","",""
"904","82","poldrack-categorize","244","457559","0.0-244.0","b4c5e961-c1cc-46d3-8fd4-2bb7bde12c95","","1500","250","stim","","<div class = centerbox><div class = stroop-stim style = ""color:green"">GREEN</div></div>","66,71,82","1500","test","false","71","500","congruent","green","green","","",""
"80215","","survey-text","245","538035","0.0-246.0","b4c5e961-c1cc-46d3-8fd4-2bb7bde12c95","","","","post task questions","","","","","","","","","","","","{""Q0"":""indicate the color of words even if the color of the ink was different than the color described in the text"",""Q1"":""there was one point in the task where i was asked to press enter but i didnt reply fast enough""}","",""
"4392","13","poldrack-text","246","543431","0.0-247.0","b4c5e961-c1cc-46d3-8fd4-2bb7bde12c95","<div class = centerbox><p class = center-block-text>Thanks for completing this task!</p><p class = center-block-text>Press <strong>enter</strong> to continue.</p></div>","4392","0","end","","","","","","","","","","","","","stroop","true"
"305384","13","text","247","848855","0.0-248.0","b4c5e961-c1cc-46d3-8fd4-2bb7bde12c95","","","","","","","","","","","","","","","","","",""
