"rt","key_press","trial_type","trial_index","time_elapsed","internal_node_id","subject","text","block_duration","timing_post_trial","trial_id","view_history","stimulus","possible_responses","stim_duration","exp_stage","correct","correct_response","feedback_duration","condition","stim_color","stim_word","responses","exp_id","credit_var"
"55014","13","text","0","55016","0.0-0.0","4ee353dc-84d4-4392-8770-cffd10961f9c","","","","","","","","","","","","","","","","","",""
"8624","13","poldrack-text","1","64648","0.0-1.0-0.0","4ee353dc-84d4-4392-8770-cffd10961f9c","<div class = centerbox><p class = center-block-text>Welcome to the experiment. This experiment will take about 8 minutes. Press <strong>enter</strong> to begin.</p></div>","8624","0","instruction","","","","","","","","","","","","","",""
"16079","","poldrack-instructions","2","80727","0.0-1.0-1.0","4ee353dc-84d4-4392-8770-cffd10961f9c","","","","instruction","[{""page_index"":0,""viewing_time"":16079}]","","","","","","","","","","","","",""
"6370","13","poldrack-text","3","88102","0.0-2.0","4ee353dc-84d4-4392-8770-cffd10961f9c","<div class = centerbox><p class = block-text>We will start with a few practice trials. Remember, press the key corresponding to the <strong>ink</strong> color of the word: ""r"" for words colored red, ""b"" for words colored blue, and ""g"" for words colored green.</p><p class = block-text>Press <strong>enter</strong> to begin practice.</p></div>","6370","1000","practice_intro","","","","","","","","","","","","","",""
"-1","-1","poldrack-single-stim","4","89610","0.0-3.0","4ee353dc-84d4-4392-8770-cffd10961f9c","","500","500","fixation","","<div class = centerbox><div class = fixation>+</div></div>","none","500","practice","","","","","","","","",""
"-1","-1","poldrack-categorize","5","92122","0.0-4.0","4ee353dc-84d4-4392-8770-cffd10961f9c","","1500","250","stim","","<div class = centerbox><div class = stroop-stim style = ""color:green"">GREEN</div></div>","66,71,82","1500","practice","false","71","500","congruent","green","green","","",""
"-1","-1","poldrack-single-stim","6","92881","0.0-5.0","4ee353dc-84d4-4392-8770-cffd10961f9c","","500","500","fixation","","<div class = centerbox><div class = fixation>+</div></div>","none","500","practice","","","","","","","","",""
"1273","66","poldrack-categorize","7","95396","0.0-6.0","4ee353dc-84d4-4392-8770-cffd10961f9c","","1500","250","stim","","<div class = centerbox><div class = stroop-stim style = ""color:blue"">RED</div></div>","66,71,82","1500","practice","true","66","500","incongruent","blue","red","","",""
"-1","-1","poldrack-single-stim","8","96155","0.0-7.0","4ee353dc-84d4-4392-8770-cffd10961f9c","","500","500","fixation","","<div class = centerbox><div class = fixation>+</div></div>","none","500","practice","","","","","","","","",""
"577","82","poldrack-categorize","9","98670","0.0-8.0","4ee353dc-84d4-4392-8770-cffd10961f9c","","1500","250","stim","","<div class = centerbox><div class = stroop-stim style = ""color:blue"">RED</div></div>","66,71,82","1500","practice","false","66","500","incongruent","blue","red","","",""
"-1","-1","poldrack-single-stim","10","99430","0.0-9.0","4ee353dc-84d4-4392-8770-cffd10961f9c","","500","500","fixation","","<div class = centerbox><div class = fixation>+</div></div>","none","500","practice","","","","","","","","",""
"1166","66","poldrack-categorize","11","101943","0.0-10.0","4ee353dc-84d4-4392-8770-cffd10961f9c","","1500","250","stim","","<div class = centerbox><div class = stroop-stim style = ""color:blue"">BLUE</div></div>","66,71,82","1500","practice","true","66","500","congruent","blue","blue","","",""
"-1","-1","poldrack-single-stim","12","102704","0.0-11.0","4ee353dc-84d4-4392-8770-cffd10961f9c","","500","500","fixation","","<div class = centerbox><div class = fixation>+</div></div>","none","500","practice","","","","","","","","",""
"660","71","poldrack-categorize","13","105217","0.0-12.0","4ee353dc-84d4-4392-8770-cffd10961f9c","","1500","250","stim","","<div class = centerbox><div class = stroop-stim style = ""color:green"">GREEN</div></div>","66,71,82","1500","practice","true","71","500","congruent","green","green","","",""
"-1","-1","poldrack-single-stim","14","105978","0.0-13.0","4ee353dc-84d4-4392-8770-cffd10961f9c","","500","500","fixation","","<div class = centerbox><div class = fixation>+</div></div>","none","500","practice","","","","","","","","",""
"466","82","poldrack-categorize","15","108491","0.0-14.0","4ee353dc-84d4-4392-8770-cffd10961f9c","","1500","250","stim","","<div class = centerbox><div class = stroop-stim style = ""color:red"">RED</div></div>","66,71,82","1500","practice","true","82","500","congruent","red","red","","",""
"-1","-1","poldrack-single-stim","16","109250","0.0-15.0","4ee353dc-84d4-4392-8770-cffd10961f9c","","500","500","fixation","","<div class = centerbox><div class = fixation>+</div></div>","none","500","practice","","","","","","","","",""
"727","82","poldrack-categorize","17","111759","0.0-16.0","4ee353dc-84d4-4392-8770-cffd10961f9c","","1500","250","stim","","<div class = centerbox><div class = stroop-stim style = ""color:red"">BLUE</div></div>","66,71,82","1500","practice","true","82","500","incongruent","red","blue","","",""
"-1","-1","poldrack-single-stim","18","112518","0.0-17.0","4ee353dc-84d4-4392-8770-cffd10961f9c","","500","500","fixation","","<div class = centerbox><div class = fixation>+</div></div>","none","500","practice","","","","","","","","",""
"944","82","poldrack-categorize","19","115024","0.0-18.0","4ee353dc-84d4-4392-8770-cffd10961f9c","","1500","250","stim","","<div class = centerbox><div class = stroop-stim style = ""color:red"">RED</div></div>","66,71,82","1500","practice","true","82","500","congruent","red","red","","",""
"-1","-1","poldrack-single-stim","20","115782","0.0-19.0","4ee353dc-84d4-4392-8770-cffd10961f9c","","500","500","fixation","","<div class = centerbox><div class = fixation>+</div></div>","none","500","practice","","","","","","","","",""
"822","82","poldrack-categorize","21","118295","0.0-20.0","4ee353dc-84d4-4392-8770-cffd10961f9c","","1500","250","stim","","<div class = centerbox><div class = stroop-stim style = ""color:red"">GREEN</div></div>","66,71,82","1500","practice","true","82","500","incongruent","red","green","","",""
"-1","-1","poldrack-single-stim","22","119056","0.0-21.0","4ee353dc-84d4-4392-8770-cffd10961f9c","","500","500","fixation","","<div class = centerbox><div class = fixation>+</div></div>","none","500","practice","","","","","","","","",""
"1100","71","poldrack-categorize","23","121568","0.0-22.0","4ee353dc-84d4-4392-8770-cffd10961f9c","","1500","250","stim","","<div class = centerbox><div class = stroop-stim style = ""color:green"">RED</div></div>","66,71,82","1500","practice","true","71","500","incongruent","green","red","","",""
"-1","-1","poldrack-single-stim","24","122329","0.0-23.0","4ee353dc-84d4-4392-8770-cffd10961f9c","","500","500","fixation","","<div class = centerbox><div class = fixation>+</div></div>","none","500","practice","","","","","","","","",""
"778","71","poldrack-categorize","25","124843","0.0-24.0","4ee353dc-84d4-4392-8770-cffd10961f9c","","1500","250","stim","","<div class = centerbox><div class = stroop-stim style = ""color:green"">GREEN</div></div>","66,71,82","1500","practice","true","71","500","congruent","green","green","","",""
"-1","-1","poldrack-single-stim","26","125597","0.0-25.0","4ee353dc-84d4-4392-8770-cffd10961f9c","","500","500","fixation","","<div class = centerbox><div class = fixation>+</div></div>","none","500","practice","","","","","","","","",""
"888","82","poldrack-categorize","27","128110","0.0-26.0","4ee353dc-84d4-4392-8770-cffd10961f9c","","1500","250","stim","","<div class = centerbox><div class = stroop-stim style = ""color:red"">BLUE</div></div>","66,71,82","1500","practice","true","82","500","incongruent","red","blue","","",""
"-1","-1","poldrack-single-stim","28","128871","0.0-27.0","4ee353dc-84d4-4392-8770-cffd10961f9c","","500","500","fixation","","<div class = centerbox><div class = fixation>+</div></div>","none","500","practice","","","","","","","","",""
"771","66","poldrack-categorize","29","131384","0.0-28.0","4ee353dc-84d4-4392-8770-cffd10961f9c","","1500","250","stim","","<div class = centerbox><div class = stroop-stim style = ""color:blue"">BLUE</div></div>","66,71,82","1500","practice","true","66","500","congruent","blue","blue","","",""
"-1","-1","poldrack-single-stim","30","132145","0.0-29.0","4ee353dc-84d4-4392-8770-cffd10961f9c","","500","500","fixation","","<div class = centerbox><div class = fixation>+</div></div>","none","500","practice","","","","","","","","",""
"593","66","poldrack-categorize","31","134658","0.0-30.0","4ee353dc-84d4-4392-8770-cffd10961f9c","","1500","250","stim","","<div class = centerbox><div class = stroop-stim style = ""color:blue"">BLUE</div></div>","66,71,82","1500","practice","true","66","500","congruent","blue","blue","","",""
"-1","-1","poldrack-single-stim","32","135413","0.0-31.0","4ee353dc-84d4-4392-8770-cffd10961f9c","","500","500","fixation","","<div class = centerbox><div class = fixation>+</div></div>","none","500","practice","","","","","","","","",""
"789","66","poldrack-categorize","33","137926","0.0-32.0","4ee353dc-84d4-4392-8770-cffd10961f9c","","1500","250","stim","","<div class = centerbox><div class = stroop-stim style = ""color:blue"">GREEN</div></div>","66,71,82","1500","practice","true","66","500","incongruent","blue","green","","",""
"-1","-1","poldrack-single-stim","34","138687","0.0-33.0","4ee353dc-84d4-4392-8770-cffd10961f9c","","500","500","fixation","","<div class = centerbox><div class = fixation>+</div></div>","none","500","practice","","","","","","","","",""
"1235","71","poldrack-categorize","35","141200","0.0-34.0","4ee353dc-84d4-4392-8770-cffd10961f9c","","1500","250","stim","","<div class = centerbox><div class = stroop-stim style = ""color:green"">GREEN</div></div>","66,71,82","1500","practice","true","71","500","congruent","green","green","","",""
"-1","-1","poldrack-single-stim","36","141961","0.0-35.0","4ee353dc-84d4-4392-8770-cffd10961f9c","","500","500","fixation","","<div class = centerbox><div class = fixation>+</div></div>","none","500","practice","","","","","","","","",""
"593","71","poldrack-categorize","37","144474","0.0-36.0","4ee353dc-84d4-4392-8770-cffd10961f9c","","1500","250","stim","","<div class = centerbox><div class = stroop-stim style = ""color:green"">RED</div></div>","66,71,82","1500","practice","true","71","500","incongruent","green","red","","",""
"-1","-1","poldrack-single-stim","38","145234","0.0-37.0","4ee353dc-84d4-4392-8770-cffd10961f9c","","500","500","fixation","","<div class = centerbox><div class = fixation>+</div></div>","none","500","practice","","","","","","","","",""
"855","82","poldrack-categorize","39","147748","0.0-38.0","4ee353dc-84d4-4392-8770-cffd10961f9c","","1500","250","stim","","<div class = centerbox><div class = stroop-stim style = ""color:red"">RED</div></div>","66,71,82","1500","practice","true","82","500","congruent","red","red","","",""
"-1","-1","poldrack-single-stim","40","148508","0.0-39.0","4ee353dc-84d4-4392-8770-cffd10961f9c","","500","500","fixation","","<div class = centerbox><div class = fixation>+</div></div>","none","500","practice","","","","","","","","",""
"485","66","poldrack-categorize","41","151020","0.0-40.0","4ee353dc-84d4-4392-8770-cffd10961f9c","","1500","250","stim","","<div class = centerbox><div class = stroop-stim style = ""color:blue"">BLUE</div></div>","66,71,82","1500","practice","true","66","500","congruent","blue","blue","","",""
"-1","-1","poldrack-single-stim","42","151776","0.0-41.0","4ee353dc-84d4-4392-8770-cffd10961f9c","","500","500","fixation","","<div class = centerbox><div class = fixation>+</div></div>","none","500","practice","","","","","","","","",""
"1201","71","poldrack-categorize","43","154289","0.0-42.0","4ee353dc-84d4-4392-8770-cffd10961f9c","","1500","250","stim","","<div class = centerbox><div class = stroop-stim style = ""color:green"">BLUE</div></div>","66,71,82","1500","practice","true","71","500","incongruent","green","blue","","",""
"-1","-1","poldrack-single-stim","44","155050","0.0-43.0","4ee353dc-84d4-4392-8770-cffd10961f9c","","500","500","fixation","","<div class = centerbox><div class = fixation>+</div></div>","none","500","practice","","","","","","","","",""
"618","66","poldrack-categorize","45","157557","0.0-44.0","4ee353dc-84d4-4392-8770-cffd10961f9c","","1500","250","stim","","<div class = centerbox><div class = stroop-stim style = ""color:blue"">GREEN</div></div>","66,71,82","1500","practice","true","66","500","incongruent","blue","green","","",""
"-1","-1","poldrack-single-stim","46","158318","0.0-45.0","4ee353dc-84d4-4392-8770-cffd10961f9c","","500","500","fixation","","<div class = centerbox><div class = fixation>+</div></div>","none","500","practice","","","","","","","","",""
"490","82","poldrack-categorize","47","160831","0.0-46.0","4ee353dc-84d4-4392-8770-cffd10961f9c","","1500","250","stim","","<div class = centerbox><div class = stroop-stim style = ""color:red"">GREEN</div></div>","66,71,82","1500","practice","true","82","500","incongruent","red","green","","",""
"-1","-1","poldrack-single-stim","48","161592","0.0-47.0","4ee353dc-84d4-4392-8770-cffd10961f9c","","500","500","fixation","","<div class = centerbox><div class = fixation>+</div></div>","none","500","practice","","","","","","","","",""
"832","71","poldrack-categorize","49","164104","0.0-48.0","4ee353dc-84d4-4392-8770-cffd10961f9c","","1500","250","stim","","<div class = centerbox><div class = stroop-stim style = ""color:green"">BLUE</div></div>","66,71,82","1500","practice","true","71","500","incongruent","green","blue","","",""
"-1","-1","poldrack-single-stim","50","164860","0.0-49.0","4ee353dc-84d4-4392-8770-cffd10961f9c","","500","500","fixation","","<div class = centerbox><div class = fixation>+</div></div>","none","500","practice","","","","","","","","",""
"556","82","poldrack-categorize","51","167373","0.0-50.0","4ee353dc-84d4-4392-8770-cffd10961f9c","","1500","250","stim","","<div class = centerbox><div class = stroop-stim style = ""color:red"">RED</div></div>","66,71,82","1500","practice","true","82","500","congruent","red","red","","",""
"3429","13","poldrack-text","52","171057","0.0-52.0","4ee353dc-84d4-4392-8770-cffd10961f9c","<div class = centerbox><p class = center-block-text>We will now start the test. Respond exactly like you did during practice.</p><p class = center-block-text>Press <strong>enter</strong> to begin the test.</p></div>","3429","1000","test_intro","","","","","","","","","","","","","",""
"-1","-1","poldrack-single-stim","53","172563","0.0-53.0","4ee353dc-84d4-4392-8770-cffd10961f9c","","500","500","fixation","","<div class = centerbox><div class = fixation>+</div></div>","none","500","test","","","","","","","","",""
"821","66","poldrack-categorize","54","175076","0.0-54.0","4ee353dc-84d4-4392-8770-cffd10961f9c","","1500","250","stim","","<div class = centerbox><div class = stroop-stim style = ""color:blue"">GREEN</div></div>","66,71,82","1500","test","true","66","500","incongruent","blue","green","","",""
"-1","-1","poldrack-single-stim","55","175836","0.0-55.0","4ee353dc-84d4-4392-8770-cffd10961f9c","","500","500","fixation","","<div class = centerbox><div class = fixation>+</div></div>","none","500","test","","","","","","","","",""
"492","66","poldrack-categorize","56","178352","0.0-56.0","4ee353dc-84d4-4392-8770-cffd10961f9c","","1500","250","stim","","<div class = centerbox><div class = stroop-stim style = ""color:blue"">BLUE</div></div>","66,71,82","1500","test","true","66","500","congruent","blue","blue","","",""
"-1","-1","poldrack-single-stim","57","179109","0.0-57.0","4ee353dc-84d4-4392-8770-cffd10961f9c","","500","500","fixation","","<div class = centerbox><div class = fixation>+</div></div>","none","500","test","","","","","","","","",""
"477","66","poldrack-categorize","58","181614","0.0-58.0","4ee353dc-84d4-4392-8770-cffd10961f9c","","1500","250","stim","","<div class = centerbox><div class = stroop-stim style = ""color:blue"">RED</div></div>","66,71,82","1500","test","true","66","500","incongruent","blue","red","","",""
"-1","-1","poldrack-single-stim","59","182372","0.0-59.0","4ee353dc-84d4-4392-8770-cffd10961f9c","","500","500","fixation","","<div class = centerbox><div class = fixation>+</div></div>","none","500","test","","","","","","","","",""
"515","66","poldrack-categorize","60","184886","0.0-60.0","4ee353dc-84d4-4392-8770-cffd10961f9c","","1500","250","stim","","<div class = centerbox><div class = stroop-stim style = ""color:blue"">RED</div></div>","66,71,82","1500","test","true","66","500","incongruent","blue","red","","",""
"-1","-1","poldrack-single-stim","61","185646","0.0-61.0","4ee353dc-84d4-4392-8770-cffd10961f9c","","500","500","fixation","","<div class = centerbox><div class = fixation>+</div></div>","none","500","test","","","","","","","","",""
"561","82","poldrack-categorize","62","188159","0.0-62.0","4ee353dc-84d4-4392-8770-cffd10961f9c","","1500","250","stim","","<div class = centerbox><div class = stroop-stim style = ""color:red"">BLUE</div></div>","66,71,82","1500","test","true","82","500","incongruent","red","blue","","",""
"-1","-1","poldrack-single-stim","63","188920","0.0-63.0","4ee353dc-84d4-4392-8770-cffd10961f9c","","500","500","fixation","","<div class = centerbox><div class = fixation>+</div></div>","none","500","test","","","","","","","","",""
"375","71","poldrack-categorize","64","191433","0.0-64.0","4ee353dc-84d4-4392-8770-cffd10961f9c","","1500","250","stim","","<div class = centerbox><div class = stroop-stim style = ""color:green"">GREEN</div></div>","66,71,82","1500","test","true","71","500","congruent","green","green","","",""
"-1","-1","poldrack-single-stim","65","192193","0.0-65.0","4ee353dc-84d4-4392-8770-cffd10961f9c","","500","500","fixation","","<div class = centerbox><div class = fixation>+</div></div>","none","500","test","","","","","","","","",""
"589","66","poldrack-categorize","66","194701","0.0-66.0","4ee353dc-84d4-4392-8770-cffd10961f9c","","1500","250","stim","","<div class = centerbox><div class = stroop-stim style = ""color:blue"">BLUE</div></div>","66,71,82","1500","test","true","66","500","congruent","blue","blue","","",""
"-1","-1","poldrack-single-stim","67","195462","0.0-67.0","4ee353dc-84d4-4392-8770-cffd10961f9c","","500","500","fixation","","<div class = centerbox><div class = fixation>+</div></div>","none","500","test","","","","","","","","",""
"520","82","poldrack-categorize","68","197975","0.0-68.0","4ee353dc-84d4-4392-8770-cffd10961f9c","","1500","250","stim","","<div class = centerbox><div class = stroop-stim style = ""color:red"">RED</div></div>","66,71,82","1500","test","true","82","500","congruent","red","red","","",""
"-1","-1","poldrack-single-stim","69","198736","0.0-69.0","4ee353dc-84d4-4392-8770-cffd10961f9c","","500","500","fixation","","<div class = centerbox><div class = fixation>+</div></div>","none","500","test","","","","","","","","",""
"526","66","poldrack-categorize","70","201249","0.0-70.0","4ee353dc-84d4-4392-8770-cffd10961f9c","","1500","250","stim","","<div class = centerbox><div class = stroop-stim style = ""color:blue"">BLUE</div></div>","66,71,82","1500","test","true","66","500","congruent","blue","blue","","",""
"-1","-1","poldrack-single-stim","71","202010","0.0-71.0","4ee353dc-84d4-4392-8770-cffd10961f9c","","500","500","fixation","","<div class = centerbox><div class = fixation>+</div></div>","none","500","test","","","","","","","","",""
"1077","82","poldrack-categorize","72","204523","0.0-72.0","4ee353dc-84d4-4392-8770-cffd10961f9c","","1500","250","stim","","<div class = centerbox><div class = stroop-stim style = ""color:red"">BLUE</div></div>","66,71,82","1500","test","true","82","500","incongruent","red","blue","","",""
"-1","-1","poldrack-single-stim","73","205283","0.0-73.0","4ee353dc-84d4-4392-8770-cffd10961f9c","","500","500","fixation","","<div class = centerbox><div class = fixation>+</div></div>","none","500","test","","","","","","","","",""
"562","66","poldrack-categorize","74","207797","0.0-74.0","4ee353dc-84d4-4392-8770-cffd10961f9c","","1500","250","stim","","<div class = centerbox><div class = stroop-stim style = ""color:blue"">RED</div></div>","66,71,82","1500","test","true","66","500","incongruent","blue","red","","",""
"-1","-1","poldrack-single-stim","75","208557","0.0-75.0","4ee353dc-84d4-4392-8770-cffd10961f9c","","500","500","fixation","","<div class = centerbox><div class = fixation>+</div></div>","none","500","test","","","","","","","","",""
"736","71","poldrack-categorize","76","211070","0.0-76.0","4ee353dc-84d4-4392-8770-cffd10961f9c","","1500","250","stim","","<div class = centerbox><div class = stroop-stim style = ""color:green"">BLUE</div></div>","66,71,82","1500","test","true","71","500","incongruent","green","blue","","",""
"-1","-1","poldrack-single-stim","77","211831","0.0-77.0","4ee353dc-84d4-4392-8770-cffd10961f9c","","500","500","fixation","","<div class = centerbox><div class = fixation>+</div></div>","none","500","test","","","","","","","","",""
"550","71","poldrack-categorize","78","214344","0.0-78.0","4ee353dc-84d4-4392-8770-cffd10961f9c","","1500","250","stim","","<div class = centerbox><div class = stroop-stim style = ""color:green"">GREEN</div></div>","66,71,82","1500","test","true","71","500","congruent","green","green","","",""
"-1","-1","poldrack-single-stim","79","215104","0.0-79.0","4ee353dc-84d4-4392-8770-cffd10961f9c","","500","500","fixation","","<div class = centerbox><div class = fixation>+</div></div>","none","500","test","","","","","","","","",""
"533","71","poldrack-categorize","80","217618","0.0-80.0","4ee353dc-84d4-4392-8770-cffd10961f9c","","1500","250","stim","","<div class = centerbox><div class = stroop-stim style = ""color:green"">GREEN</div></div>","66,71,82","1500","test","true","71","500","congruent","green","green","","",""
"-1","-1","poldrack-single-stim","81","218379","0.0-81.0","4ee353dc-84d4-4392-8770-cffd10961f9c","","500","500","fixation","","<div class = centerbox><div class = fixation>+</div></div>","none","500","test","","","","","","","","",""
"435","71","poldrack-categorize","82","220892","0.0-82.0","4ee353dc-84d4-4392-8770-cffd10961f9c","","1500","250","stim","","<div class = centerbox><div class = stroop-stim style = ""color:green"">BLUE</div></div>","66,71,82","1500","test","true","71","500","incongruent","green","blue","","",""
"-1","-1","poldrack-single-stim","83","221652","0.0-83.0","4ee353dc-84d4-4392-8770-cffd10961f9c","","500","500","fixation","","<div class = centerbox><div class = fixation>+</div></div>","none","500","test","","","","","","","","",""
"1280","66","poldrack-categorize","84","224166","0.0-84.0","4ee353dc-84d4-4392-8770-cffd10961f9c","","1500","250","stim","","<div class = centerbox><div class = stroop-stim style = ""color:blue"">BLUE</div></div>","66,71,82","1500","test","true","66","500","congruent","blue","blue","","",""
"-1","-1","poldrack-single-stim","85","224926","0.0-85.0","4ee353dc-84d4-4392-8770-cffd10961f9c","","500","500","fixation","","<div class = centerbox><div class = fixation>+</div></div>","none","500","test","","","","","","","","",""
"550","82","poldrack-categorize","86","227439","0.0-86.0","4ee353dc-84d4-4392-8770-cffd10961f9c","","1500","250","stim","","<div class = centerbox><div class = stroop-stim style = ""color:red"">RED</div></div>","66,71,82","1500","test","true","82","500","congruent","red","red","","",""
"-1","-1","poldrack-single-stim","87","228194","0.0-87.0","4ee353dc-84d4-4392-8770-cffd10961f9c","","500","500","fixation","","<div class = centerbox><div class = fixation>+</div></div>","none","500","test","","","","","","","","",""
"834","71","poldrack-categorize","88","230708","0.0-88.0","4ee353dc-84d4-4392-8770-cffd10961f9c","","1500","250","stim","","<div class = centerbox><div class = stroop-stim style = ""color:green"">BLUE</div></div>","66,71,82","1500","test","true","71","500","incongruent","green","blue","","",""
"-1","-1","poldrack-single-stim","89","231468","0.0-89.0","4ee353dc-84d4-4392-8770-cffd10961f9c","","500","500","fixation","","<div class = centerbox><div class = fixation>+</div></div>","none","500","test","","","","","","","","",""
"968","82","poldrack-categorize","90","233981","0.0-90.0","4ee353dc-84d4-4392-8770-cffd10961f9c","","1500","250","stim","","<div class = centerbox><div class = stroop-stim style = ""color:red"">RED</div></div>","66,71,82","1500","test","true","82","500","congruent","red","red","","",""
"-1","-1","poldrack-single-stim","91","234742","0.0-91.0","4ee353dc-84d4-4392-8770-cffd10961f9c","","500","500","fixation","","<div class = centerbox><div class = fixation>+</div></div>","none","500","test","","","","","","","","",""
"615","82","poldrack-categorize","92","237255","0.0-92.0","4ee353dc-84d4-4392-8770-cffd10961f9c","","1500","250","stim","","<div class = centerbox><div class = stroop-stim style = ""color:green"">GREEN</div></div>","66,71,82","1500","test","false","71","500","congruent","green","green","","",""
"-1","-1","poldrack-single-stim","93","238016","0.0-93.0","4ee353dc-84d4-4392-8770-cffd10961f9c","","500","500","fixation","","<div class = centerbox><div class = fixation>+</div></div>","none","500","test","","","","","","","","",""
"605","66","poldrack-categorize","94","240529","0.0-94.0","4ee353dc-84d4-4392-8770-cffd10961f9c","","1500","250","stim","","<div class = centerbox><div class = stroop-stim style = ""color:blue"">RED</div></div>","66,71,82","1500","test","true","66","500","incongruent","blue","red","","",""
"-1","-1","poldrack-single-stim","95","241289","0.0-95.0","4ee353dc-84d4-4392-8770-cffd10961f9c","","500","500","fixation","","<div class = centerbox><div class = fixation>+</div></div>","none","500","test","","","","","","","","",""
"1091","71","poldrack-categorize","96","243803","0.0-96.0","4ee353dc-84d4-4392-8770-cffd10961f9c","","1500","250","stim","","<div class = centerbox><div class = stroop-stim style = ""color:green"">GREEN</div></div>","66,71,82","1500","test","true","71","500","congruent","green","green","","",""
"-1","-1","poldrack-single-stim","97","244563","0.0-97.0","4ee353dc-84d4-4392-8770-cffd10961f9c","","500","500","fixation","","<div class = centerbox><div class = fixation>+</div></div>","none","500","test","","","","","","","","",""
"1200","66","poldrack-categorize","98","247077","0.0-98.0","4ee353dc-84d4-4392-8770-cffd10961f9c","","1500","250","stim","","<div class = centerbox><div class = stroop-stim style = ""color:red"">RED</div></div>","66,71,82","1500","test","false","82","500","congruent","red","red","","",""
"-1","-1","poldrack-single-stim","99","247837","0.0-99.0","4ee353dc-84d4-4392-8770-cffd10961f9c","","500","500","fixation","","<div class = centerbox><div class = fixation>+</div></div>","none","500","test","","","","","","","","",""
"935","82","poldrack-categorize","100","250350","0.0-100.0","4ee353dc-84d4-4392-8770-cffd10961f9c","","1500","250","stim","","<div class = centerbox><div class = stroop-stim style = ""color:red"">BLUE</div></div>","66,71,82","1500","test","true","82","500","incongruent","red","blue","","",""
"-1","-1","poldrack-single-stim","101","251111","0.0-101.0","4ee353dc-84d4-4392-8770-cffd10961f9c","","500","500","fixation","","<div class = centerbox><div class = fixation>+</div></div>","none","500","test","","","","","","","","",""
"627","82","poldrack-categorize","102","253624","0.0-102.0","4ee353dc-84d4-4392-8770-cffd10961f9c","","1500","250","stim","","<div class = centerbox><div class = stroop-stim style = ""color:red"">BLUE</div></div>","66,71,82","1500","test","true","82","500","incongruent","red","blue","","",""
"-1","-1","poldrack-single-stim","103","254385","0.0-103.0","4ee353dc-84d4-4392-8770-cffd10961f9c","","500","500","fixation","","<div class = centerbox><div class = fixation>+</div></div>","none","500","test","","","","","","","","",""
"763","82","poldrack-categorize","104","256898","0.0-104.0","4ee353dc-84d4-4392-8770-cffd10961f9c","","1500","250","stim","","<div class = centerbox><div class = stroop-stim style = ""color:red"">GREEN</div></div>","66,71,82","1500","test","true","82","500","incongruent","red","green","","",""
"-1","-1","poldrack-single-stim","105","257658","0.0-105.0","4ee353dc-84d4-4392-8770-cffd10961f9c","","500","500","fixation","","<div class = centerbox><div class = fixation>+</div></div>","none","500","test","","","","","","","","",""
"473","82","poldrack-categorize","106","260172","0.0-106.0","4ee353dc-84d4-4392-8770-cffd10961f9c","","1500","250","stim","","<div class = centerbox><div class = stroop-stim style = ""color:red"">RED</div></div>","66,71,82","1500","test","true","82","500","congruent","red","red","","",""
"-1","-1","poldrack-single-stim","107","260932","0.0-107.0","4ee353dc-84d4-4392-8770-cffd10961f9c","","500","500","fixation","","<div class = centerbox><div class = fixation>+</div></div>","none","500","test","","","","","","","","",""
"534","66","poldrack-categorize","108","263446","0.0-108.0","4ee353dc-84d4-4392-8770-cffd10961f9c","","1500","250","stim","","<div class = centerbox><div class = stroop-stim style = ""color:blue"">BLUE</div></div>","66,71,82","1500","test","true","66","500","congruent","blue","blue","","",""
"-1","-1","poldrack-single-stim","109","264206","0.0-109.0","4ee353dc-84d4-4392-8770-cffd10961f9c","","500","500","fixation","","<div class = centerbox><div class = fixation>+</div></div>","none","500","test","","","","","","","","",""
"652","82","poldrack-categorize","110","266719","0.0-110.0","4ee353dc-84d4-4392-8770-cffd10961f9c","","1500","250","stim","","<div class = centerbox><div class = stroop-stim style = ""color:red"">RED</div></div>","66,71,82","1500","test","true","82","500","congruent","red","red","","",""
"-1","-1","poldrack-single-stim","111","267480","0.0-111.0","4ee353dc-84d4-4392-8770-cffd10961f9c","","500","500","fixation","","<div class = centerbox><div class = fixation>+</div></div>","none","500","test","","","","","","","","",""
"770","66","poldrack-categorize","112","269993","0.0-112.0","4ee353dc-84d4-4392-8770-cffd10961f9c","","1500","250","stim","","<div class = centerbox><div class = stroop-stim style = ""color:blue"">BLUE</div></div>","66,71,82","1500","test","true","66","500","congruent","blue","blue","","",""
"-1","-1","poldrack-single-stim","113","270754","0.0-113.0","4ee353dc-84d4-4392-8770-cffd10961f9c","","500","500","fixation","","<div class = centerbox><div class = fixation>+</div></div>","none","500","test","","","","","","","","",""
"663","71","poldrack-categorize","114","273267","0.0-114.0","4ee353dc-84d4-4392-8770-cffd10961f9c","","1500","250","stim","","<div class = centerbox><div class = stroop-stim style = ""color:green"">BLUE</div></div>","66,71,82","1500","test","true","71","500","incongruent","green","blue","","",""
"-1","-1","poldrack-single-stim","115","274028","0.0-115.0","4ee353dc-84d4-4392-8770-cffd10961f9c","","500","500","fixation","","<div class = centerbox><div class = fixation>+</div></div>","none","500","test","","","","","","","","",""
"614","82","poldrack-categorize","116","276541","0.0-116.0","4ee353dc-84d4-4392-8770-cffd10961f9c","","1500","250","stim","","<div class = centerbox><div class = stroop-stim style = ""color:red"">RED</div></div>","66,71,82","1500","test","true","82","500","congruent","red","red","","",""
"-1","-1","poldrack-single-stim","117","277301","0.0-117.0","4ee353dc-84d4-4392-8770-cffd10961f9c","","500","500","fixation","","<div class = centerbox><div class = fixation>+</div></div>","none","500","test","","","","","","","","",""
"700","66","poldrack-categorize","118","279815","0.0-118.0","4ee353dc-84d4-4392-8770-cffd10961f9c","","1500","250","stim","","<div class = centerbox><div class = stroop-stim style = ""color:blue"">BLUE</div></div>","66,71,82","1500","test","true","66","500","congruent","blue","blue","","",""
"-1","-1","poldrack-single-stim","119","280575","0.0-119.0","4ee353dc-84d4-4392-8770-cffd10961f9c","","500","500","fixation","","<div class = centerbox><div class = fixation>+</div></div>","none","500","test","","","","","","","","",""
"1306","82","poldrack-categorize","120","283083","0.0-120.0","4ee353dc-84d4-4392-8770-cffd10961f9c","","1500","250","stim","","<div class = centerbox><div class = stroop-stim style = ""color:red"">RED</div></div>","66,71,82","1500","test","true","82","500","congruent","red","red","","",""
"-1","-1","poldrack-single-stim","121","283843","0.0-121.0","4ee353dc-84d4-4392-8770-cffd10961f9c","","500","500","fixation","","<div class = centerbox><div class = fixation>+</div></div>","none","500","test","","","","","","","","",""
"621","66","poldrack-categorize","122","286357","0.0-122.0","4ee353dc-84d4-4392-8770-cffd10961f9c","","1500","250","stim","","<div class = centerbox><div class = stroop-stim style = ""color:blue"">GREEN</div></div>","66,71,82","1500","test","true","66","500","incongruent","blue","green","","",""
"-1","-1","poldrack-single-stim","123","287117","0.0-123.0","4ee353dc-84d4-4392-8770-cffd10961f9c","","500","500","fixation","","<div class = centerbox><div class = fixation>+</div></div>","none","500","test","","","","","","","","",""
"675","71","poldrack-categorize","124","289630","0.0-124.0","4ee353dc-84d4-4392-8770-cffd10961f9c","","1500","250","stim","","<div class = centerbox><div class = stroop-stim style = ""color:green"">RED</div></div>","66,71,82","1500","test","true","71","500","incongruent","green","red","","",""
"-1","-1","poldrack-single-stim","125","290391","0.0-125.0","4ee353dc-84d4-4392-8770-cffd10961f9c","","500","500","fixation","","<div class = centerbox><div class = fixation>+</div></div>","none","500","test","","","","","","","","",""
"697","82","poldrack-categorize","126","292904","0.0-126.0","4ee353dc-84d4-4392-8770-cffd10961f9c","","1500","250","stim","","<div class = centerbox><div class = stroop-stim style = ""color:blue"">RED</div></div>","66,71,82","1500","test","false","66","500","incongruent","blue","red","","",""
"-1","-1","poldrack-single-stim","127","293665","0.0-127.0","4ee353dc-84d4-4392-8770-cffd10961f9c","","500","500","fixation","","<div class = centerbox><div class = fixation>+</div></div>","none","500","test","","","","","","","","",""
"1128","82","poldrack-categorize","128","296174","0.0-128.0","4ee353dc-84d4-4392-8770-cffd10961f9c","","1500","250","stim","","<div class = centerbox><div class = stroop-stim style = ""color:blue"">RED</div></div>","66,71,82","1500","test","false","66","500","incongruent","blue","red","","",""
"-1","-1","poldrack-single-stim","129","296933","0.0-129.0","4ee353dc-84d4-4392-8770-cffd10961f9c","","500","500","fixation","","<div class = centerbox><div class = fixation>+</div></div>","none","500","test","","","","","","","","",""
"1211","82","poldrack-categorize","130","299446","0.0-130.0","4ee353dc-84d4-4392-8770-cffd10961f9c","","1500","250","stim","","<div class = centerbox><div class = stroop-stim style = ""color:red"">GREEN</div></div>","66,71,82","1500","test","true","82","500","incongruent","red","green","","",""
"-1","-1","poldrack-single-stim","131","300207","0.0-131.0","4ee353dc-84d4-4392-8770-cffd10961f9c","","500","500","fixation","","<div class = centerbox><div class = fixation>+</div></div>","none","500","test","","","","","","","","",""
"905","71","poldrack-categorize","132","302720","0.0-132.0","4ee353dc-84d4-4392-8770-cffd10961f9c","","1500","250","stim","","<div class = centerbox><div class = stroop-stim style = ""color:green"">BLUE</div></div>","66,71,82","1500","test","true","71","500","incongruent","green","blue","","",""
"-1","-1","poldrack-single-stim","133","303480","0.0-133.0","4ee353dc-84d4-4392-8770-cffd10961f9c","","500","500","fixation","","<div class = centerbox><div class = fixation>+</div></div>","none","500","test","","","","","","","","",""
"904","82","poldrack-categorize","134","305993","0.0-134.0","4ee353dc-84d4-4392-8770-cffd10961f9c","","1500","250","stim","","<div class = centerbox><div class = stroop-stim style = ""color:red"">RED</div></div>","66,71,82","1500","test","true","82","500","congruent","red","red","","",""
"-1","-1","poldrack-single-stim","135","306754","0.0-135.0","4ee353dc-84d4-4392-8770-cffd10961f9c","","500","500","fixation","","<div class = centerbox><div class = fixation>+</div></div>","none","500","test","","","","","","","","",""
"670","66","poldrack-categorize","136","309267","0.0-136.0","4ee353dc-84d4-4392-8770-cffd10961f9c","","1500","250","stim","","<div class = centerbox><div class = stroop-stim style = ""color:blue"">BLUE</div></div>","66,71,82","1500","test","true","66","500","congruent","blue","blue","","",""
"-1","-1","poldrack-single-stim","137","310022","0.0-137.0","4ee353dc-84d4-4392-8770-cffd10961f9c","","500","500","fixation","","<div class = centerbox><div class = fixation>+</div></div>","none","500","test","","","","","","","","",""
"824","66","poldrack-categorize","138","312535","0.0-138.0","4ee353dc-84d4-4392-8770-cffd10961f9c","","1500","250","stim","","<div class = centerbox><div class = stroop-stim style = ""color:blue"">BLUE</div></div>","66,71,82","1500","test","true","66","500","congruent","blue","blue","","",""
"-1","-1","poldrack-single-stim","139","313296","0.0-139.0","4ee353dc-84d4-4392-8770-cffd10961f9c","","500","500","fixation","","<div class = centerbox><div class = fixation>+</div></div>","none","500","test","","","","","","","","",""
"632","71","poldrack-categorize","140","315809","0.0-140.0","4ee353dc-84d4-4392-8770-cffd10961f9c","","1500","250","stim","","<div class = centerbox><div class = stroop-stim style = ""color:green"">BLUE</div></div>","66,71,82","1500","test","true","71","500","incongruent","green","blue","","",""
"-1","-1","poldrack-single-stim","141","316570","0.0-141.0","4ee353dc-84d4-4392-8770-cffd10961f9c","","500","500","fixation","","<div class = centerbox><div class = fixation>+</div></div>","none","500","test","","","","","","","","",""
"967","66","poldrack-categorize","142","319083","0.0-142.0","4ee353dc-84d4-4392-8770-cffd10961f9c","","1500","250","stim","","<div class = centerbox><div class = stroop-stim style = ""color:blue"">GREEN</div></div>","66,71,82","1500","test","true","66","500","incongruent","blue","green","","",""
"-1","-1","poldrack-single-stim","143","319843","0.0-143.0","4ee353dc-84d4-4392-8770-cffd10961f9c","","500","500","fixation","","<div class = centerbox><div class = fixation>+</div></div>","none","500","test","","","","","","","","",""
"876","71","poldrack-categorize","144","322351","0.0-144.0","4ee353dc-84d4-4392-8770-cffd10961f9c","","1500","250","stim","","<div class = centerbox><div class = stroop-stim style = ""color:green"">GREEN</div></div>","66,71,82","1500","test","true","71","500","congruent","green","green","","",""
"-1","-1","poldrack-single-stim","145","323111","0.0-145.0","4ee353dc-84d4-4392-8770-cffd10961f9c","","500","500","fixation","","<div class = centerbox><div class = fixation>+</div></div>","none","500","test","","","","","","","","",""
"536","71","poldrack-categorize","146","325619","0.0-146.0","4ee353dc-84d4-4392-8770-cffd10961f9c","","1500","250","stim","","<div class = centerbox><div class = stroop-stim style = ""color:green"">GREEN</div></div>","66,71,82","1500","test","true","71","500","congruent","green","green","","",""
"-1","-1","poldrack-single-stim","147","326374","0.0-147.0","4ee353dc-84d4-4392-8770-cffd10961f9c","","500","500","fixation","","<div class = centerbox><div class = fixation>+</div></div>","none","500","test","","","","","","","","",""
"573","66","poldrack-categorize","148","328881","0.0-148.0","4ee353dc-84d4-4392-8770-cffd10961f9c","","1500","250","stim","","<div class = centerbox><div class = stroop-stim style = ""color:blue"">BLUE</div></div>","66,71,82","1500","test","true","66","500","congruent","blue","blue","","",""
"-1","-1","poldrack-single-stim","149","329636","0.0-149.0","4ee353dc-84d4-4392-8770-cffd10961f9c","","500","500","fixation","","<div class = centerbox><div class = fixation>+</div></div>","none","500","test","","","","","","","","",""
"619","71","poldrack-categorize","150","332148","0.0-150.0","4ee353dc-84d4-4392-8770-cffd10961f9c","","1500","250","stim","","<div class = centerbox><div class = stroop-stim style = ""color:green"">RED</div></div>","66,71,82","1500","test","true","71","500","incongruent","green","red","","",""
"-1","-1","poldrack-single-stim","151","332902","0.0-151.0","4ee353dc-84d4-4392-8770-cffd10961f9c","","500","500","fixation","","<div class = centerbox><div class = fixation>+</div></div>","none","500","test","","","","","","","","",""
"834","66","poldrack-categorize","152","335411","0.0-152.0","4ee353dc-84d4-4392-8770-cffd10961f9c","","1500","250","stim","","<div class = centerbox><div class = stroop-stim style = ""color:blue"">GREEN</div></div>","66,71,82","1500","test","true","66","500","incongruent","blue","green","","",""
"-1","-1","poldrack-single-stim","153","336165","0.0-153.0","4ee353dc-84d4-4392-8770-cffd10961f9c","","500","500","fixation","","<div class = centerbox><div class = fixation>+</div></div>","none","500","test","","","","","","","","",""
"965","66","poldrack-categorize","154","338673","0.0-154.0","4ee353dc-84d4-4392-8770-cffd10961f9c","","1500","250","stim","","<div class = centerbox><div class = stroop-stim style = ""color:blue"">RED</div></div>","66,71,82","1500","test","true","66","500","incongruent","blue","red","","",""
"-1","-1","poldrack-single-stim","155","339427","0.0-155.0","4ee353dc-84d4-4392-8770-cffd10961f9c","","500","500","fixation","","<div class = centerbox><div class = fixation>+</div></div>","none","500","test","","","","","","","","",""
"564","66","poldrack-categorize","156","341935","0.0-156.0","4ee353dc-84d4-4392-8770-cffd10961f9c","","1500","250","stim","","<div class = centerbox><div class = stroop-stim style = ""color:blue"">BLUE</div></div>","66,71,82","1500","test","true","66","500","congruent","blue","blue","","",""
"-1","-1","poldrack-single-stim","157","342696","0.0-157.0","4ee353dc-84d4-4392-8770-cffd10961f9c","","500","500","fixation","","<div class = centerbox><div class = fixation>+</div></div>","none","500","test","","","","","","","","",""
"599","66","poldrack-categorize","158","345204","0.0-158.0","4ee353dc-84d4-4392-8770-cffd10961f9c","","1500","250","stim","","<div class = centerbox><div class = stroop-stim style = ""color:blue"">GREEN</div></div>","66,71,82","1500","test","true","66","500","incongruent","blue","green","","",""
"-1","-1","poldrack-single-stim","159","345964","0.0-159.0","4ee353dc-84d4-4392-8770-cffd10961f9c","","500","500","fixation","","<div class = centerbox><div class = fixation>+</div></div>","none","500","test","","","","","","","","",""
"649","71","poldrack-categorize","160","348473","0.0-160.0","4ee353dc-84d4-4392-8770-cffd10961f9c","","1500","250","stim","","<div class = centerbox><div class = stroop-stim style = ""color:green"">RED</div></div>","66,71,82","1500","test","true","71","500","incongruent","green","red","","",""
"-1","-1","poldrack-single-stim","161","349231","0.0-161.0","4ee353dc-84d4-4392-8770-cffd10961f9c","","500","500","fixation","","<div class = centerbox><div class = fixation>+</div></div>","none","500","test","","","","","","","","",""
"711","82","poldrack-categorize","162","351739","0.0-162.0","4ee353dc-84d4-4392-8770-cffd10961f9c","","1500","250","stim","","<div class = centerbox><div class = stroop-stim style = ""color:red"">BLUE</div></div>","66,71,82","1500","test","true","82","500","incongruent","red","blue","","",""
"-1","-1","poldrack-single-stim","163","352494","0.0-163.0","4ee353dc-84d4-4392-8770-cffd10961f9c","","500","500","fixation","","<div class = centerbox><div class = fixation>+</div></div>","none","500","test","","","","","","","","",""
"878","66","poldrack-categorize","164","355003","0.0-164.0","4ee353dc-84d4-4392-8770-cffd10961f9c","","1500","250","stim","","<div class = centerbox><div class = stroop-stim style = ""color:blue"">BLUE</div></div>","66,71,82","1500","test","true","66","500","congruent","blue","blue","","",""
"-1","-1","poldrack-single-stim","165","355762","0.0-165.0","4ee353dc-84d4-4392-8770-cffd10961f9c","","500","500","fixation","","<div class = centerbox><div class = fixation>+</div></div>","none","500","test","","","","","","","","",""
"709","71","poldrack-categorize","166","358270","0.0-166.0","4ee353dc-84d4-4392-8770-cffd10961f9c","","1500","250","stim","","<div class = centerbox><div class = stroop-stim style = ""color:green"">GREEN</div></div>","66,71,82","1500","test","true","71","500","congruent","green","green","","",""
"-1","-1","poldrack-single-stim","167","359022","0.0-167.0","4ee353dc-84d4-4392-8770-cffd10961f9c","","500","500","fixation","","<div class = centerbox><div class = fixation>+</div></div>","none","500","test","","","","","","","","",""
"497","71","poldrack-categorize","168","361532","0.0-168.0","4ee353dc-84d4-4392-8770-cffd10961f9c","","1500","250","stim","","<div class = centerbox><div class = stroop-stim style = ""color:green"">GREEN</div></div>","66,71,82","1500","test","true","71","500","congruent","green","green","","",""
"-1","-1","poldrack-single-stim","169","362287","0.0-169.0","4ee353dc-84d4-4392-8770-cffd10961f9c","","500","500","fixation","","<div class = centerbox><div class = fixation>+</div></div>","none","500","test","","","","","","","","",""
"516","82","poldrack-categorize","170","364800","0.0-170.0","4ee353dc-84d4-4392-8770-cffd10961f9c","","1500","250","stim","","<div class = centerbox><div class = stroop-stim style = ""color:red"">BLUE</div></div>","66,71,82","1500","test","true","82","500","incongruent","red","blue","","",""
"-1","-1","poldrack-single-stim","171","365557","0.0-171.0","4ee353dc-84d4-4392-8770-cffd10961f9c","","500","500","fixation","","<div class = centerbox><div class = fixation>+</div></div>","none","500","test","","","","","","","","",""
"451","82","poldrack-categorize","172","368062","0.0-172.0","4ee353dc-84d4-4392-8770-cffd10961f9c","","1500","250","stim","","<div class = centerbox><div class = stroop-stim style = ""color:red"">GREEN</div></div>","66,71,82","1500","test","true","82","500","incongruent","red","green","","",""
"-1","-1","poldrack-single-stim","173","368814","0.0-173.0","4ee353dc-84d4-4392-8770-cffd10961f9c","","500","500","fixation","","<div class = centerbox><div class = fixation>+</div></div>","none","500","test","","","","","","","","",""
"486","82","poldrack-categorize","174","371325","0.0-174.0","4ee353dc-84d4-4392-8770-cffd10961f9c","","1500","250","stim","","<div class = centerbox><div class = stroop-stim style = ""color:red"">BLUE</div></div>","66,71,82","1500","test","true","82","500","incongruent","red","blue","","",""
"-1","-1","poldrack-single-stim","175","372085","0.0-175.0","4ee353dc-84d4-4392-8770-cffd10961f9c","","500","500","fixation","","<div class = centerbox><div class = fixation>+</div></div>","none","500","test","","","","","","","","",""
"1215","71","poldrack-categorize","176","374595","0.0-176.0","4ee353dc-84d4-4392-8770-cffd10961f9c","","1500","250","stim","","<div class = centerbox><div class = stroop-stim style = ""color:green"">GREEN</div></div>","66,71,82","1500","test","true","71","500","congruent","green","green","","",""
"-1","-1","poldrack-single-stim","177","375353","0.0-177.0","4ee353dc-84d4-4392-8770-cffd10961f9c","","500","500","fixation","","<div class = centerbox><div class = fixation>+</div></div>","none","500","test","","","","","","","","",""
"651","71","poldrack-categorize","178","377866","0.0-178.0","4ee353dc-84d4-4392-8770-cffd10961f9c","","1500","250","stim","","<div class = centerbox><div class = stroop-stim style = ""color:green"">GREEN</div></div>","66,71,82","1500","test","true","71","500","congruent","green","green","","",""
"-1","-1","poldrack-single-stim","179","378627","0.0-179.0","4ee353dc-84d4-4392-8770-cffd10961f9c","","500","500","fixation","","<div class = centerbox><div class = fixation>+</div></div>","none","500","test","","","","","","","","",""
"419","82","poldrack-categorize","180","381134","0.0-180.0","4ee353dc-84d4-4392-8770-cffd10961f9c","","1500","250","stim","","<div class = centerbox><div class = stroop-stim style = ""color:red"">GREEN</div></div>","66,71,82","1500","test","true","82","500","incongruent","red","green","","",""
"-1","-1","poldrack-single-stim","181","381893","0.0-181.0","4ee353dc-84d4-4392-8770-cffd10961f9c","","500","500","fixation","","<div class = centerbox><div class = fixation>+</div></div>","none","500","test","","","","","","","","",""
"548","82","poldrack-categorize","182","384408","0.0-182.0","4ee353dc-84d4-4392-8770-cffd10961f9c","","1500","250","stim","","<div class = centerbox><div class = stroop-stim style = ""color:red"">RED</div></div>","66,71,82","1500","test","true","82","500","congruent","red","red","","",""
"-1","-1","poldrack-single-stim","183","385169","0.0-183.0","4ee353dc-84d4-4392-8770-cffd10961f9c","","500","500","fixation","","<div class = centerbox><div class = fixation>+</div></div>","none","500","test","","","","","","","","",""
"429","82","poldrack-categorize","184","387676","0.0-184.0","4ee353dc-84d4-4392-8770-cffd10961f9c","","1500","250","stim","","<div class = centerbox><div class = stroop-stim style = ""color:red"">BLUE</div></div>","66,71,82","1500","test","true","82","500","incongruent","red","blue","","",""
"-1","-1","poldrack-single-stim","185","388430","0.0-185.0","4ee353dc-84d4-4392-8770-cffd10961f9c","","500","500","fixation","","<div class = centerbox><div class = fixation>+</div></div>","none","500","test","","","","","","","","",""
"422","82","poldrack-categorize","186","390938","0.0-186.0","4ee353dc-84d4-4392-8770-cffd10961f9c","","1500","250","stim","","<div class = centerbox><div class = stroop-stim style = ""color:red"">GREEN</div></div>","66,71,82","1500","test","true","82","500","incongruent","red","green","","",""
"-1","-1","poldrack-single-stim","187","391698","0.0-187.0","4ee353dc-84d4-4392-8770-cffd10961f9c","","500","500","fixation","","<div class = centerbox><div class = fixation>+</div></div>","none","500","test","","","","","","","","",""
"594","71","poldrack-categorize","188","394205","0.0-188.0","4ee353dc-84d4-4392-8770-cffd10961f9c","","1500","250","stim","","<div class = centerbox><div class = stroop-stim style = ""color:green"">RED</div></div>","66,71,82","1500","test","true","71","500","incongruent","green","red","","",""
"-1","-1","poldrack-single-stim","189","394960","0.0-189.0","4ee353dc-84d4-4392-8770-cffd10961f9c","","500","500","fixation","","<div class = centerbox><div class = fixation>+</div></div>","none","500","test","","","","","","","","",""
"627","82","poldrack-categorize","190","397466","0.0-190.0","4ee353dc-84d4-4392-8770-cffd10961f9c","","1500","250","stim","","<div class = centerbox><div class = stroop-stim style = ""color:red"">RED</div></div>","66,71,82","1500","test","true","82","500","congruent","red","red","","",""
"-1","-1","poldrack-single-stim","191","398220","0.0-191.0","4ee353dc-84d4-4392-8770-cffd10961f9c","","500","500","fixation","","<div class = centerbox><div class = fixation>+</div></div>","none","500","test","","","","","","","","",""
"504","82","poldrack-categorize","192","400724","0.0-192.0","4ee353dc-84d4-4392-8770-cffd10961f9c","","1500","250","stim","","<div class = centerbox><div class = stroop-stim style = ""color:red"">RED</div></div>","66,71,82","1500","test","true","82","500","congruent","red","red","","",""
"-1","-1","poldrack-single-stim","193","401480","0.0-193.0","4ee353dc-84d4-4392-8770-cffd10961f9c","","500","500","fixation","","<div class = centerbox><div class = fixation>+</div></div>","none","500","test","","","","","","","","",""
"690","71","poldrack-categorize","194","403989","0.0-194.0","4ee353dc-84d4-4392-8770-cffd10961f9c","","1500","250","stim","","<div class = centerbox><div class = stroop-stim style = ""color:green"">GREEN</div></div>","66,71,82","1500","test","true","71","500","congruent","green","green","","",""
"-1","-1","poldrack-single-stim","195","404744","0.0-195.0","4ee353dc-84d4-4392-8770-cffd10961f9c","","500","500","fixation","","<div class = centerbox><div class = fixation>+</div></div>","none","500","test","","","","","","","","",""
"611","71","poldrack-categorize","196","407251","0.0-196.0","4ee353dc-84d4-4392-8770-cffd10961f9c","","1500","250","stim","","<div class = centerbox><div class = stroop-stim style = ""color:green"">BLUE</div></div>","66,71,82","1500","test","true","71","500","incongruent","green","blue","","",""
"-1","-1","poldrack-single-stim","197","408010","0.0-197.0","4ee353dc-84d4-4392-8770-cffd10961f9c","","500","500","fixation","","<div class = centerbox><div class = fixation>+</div></div>","none","500","test","","","","","","","","",""
"742","71","poldrack-categorize","198","410523","0.0-198.0","4ee353dc-84d4-4392-8770-cffd10961f9c","","1500","250","stim","","<div class = centerbox><div class = stroop-stim style = ""color:green"">GREEN</div></div>","66,71,82","1500","test","true","71","500","congruent","green","green","","",""
"-1","-1","poldrack-single-stim","199","411279","0.0-199.0","4ee353dc-84d4-4392-8770-cffd10961f9c","","500","500","fixation","","<div class = centerbox><div class = fixation>+</div></div>","none","500","test","","","","","","","","",""
"531","82","poldrack-categorize","200","413789","0.0-200.0","4ee353dc-84d4-4392-8770-cffd10961f9c","","1500","250","stim","","<div class = centerbox><div class = stroop-stim style = ""color:red"">RED</div></div>","66,71,82","1500","test","true","82","500","congruent","red","red","","",""
"-1","-1","poldrack-single-stim","201","414546","0.0-201.0","4ee353dc-84d4-4392-8770-cffd10961f9c","","500","500","fixation","","<div class = centerbox><div class = fixation>+</div></div>","none","500","test","","","","","","","","",""
"598","66","poldrack-categorize","202","417059","0.0-202.0","4ee353dc-84d4-4392-8770-cffd10961f9c","","1500","250","stim","","<div class = centerbox><div class = stroop-stim style = ""color:blue"">GREEN</div></div>","66,71,82","1500","test","true","66","500","incongruent","blue","green","","",""
"-1","-1","poldrack-single-stim","203","417818","0.0-203.0","4ee353dc-84d4-4392-8770-cffd10961f9c","","500","500","fixation","","<div class = centerbox><div class = fixation>+</div></div>","none","500","test","","","","","","","","",""
"614","71","poldrack-categorize","204","420333","0.0-204.0","4ee353dc-84d4-4392-8770-cffd10961f9c","","1500","250","stim","","<div class = centerbox><div class = stroop-stim style = ""color:green"">RED</div></div>","66,71,82","1500","test","true","71","500","incongruent","green","red","","",""
"-1","-1","poldrack-single-stim","205","421087","0.0-205.0","4ee353dc-84d4-4392-8770-cffd10961f9c","","500","500","fixation","","<div class = centerbox><div class = fixation>+</div></div>","none","500","test","","","","","","","","",""
"401","82","poldrack-categorize","206","423601","0.0-206.0","4ee353dc-84d4-4392-8770-cffd10961f9c","","1500","250","stim","","<div class = centerbox><div class = stroop-stim style = ""color:red"">RED</div></div>","66,71,82","1500","test","true","82","500","congruent","red","red","","",""
"-1","-1","poldrack-single-stim","207","424362","0.0-207.0","4ee353dc-84d4-4392-8770-cffd10961f9c","","500","500","fixation","","<div class = centerbox><div class = fixation>+</div></div>","none","500","test","","","","","","","","",""
"688","71","poldrack-categorize","208","426875","0.0-208.0","4ee353dc-84d4-4392-8770-cffd10961f9c","","1500","250","stim","","<div class = centerbox><div class = stroop-stim style = ""color:green"">GREEN</div></div>","66,71,82","1500","test","true","71","500","congruent","green","green","","",""
"-1","-1","poldrack-single-stim","209","427629","0.0-209.0","4ee353dc-84d4-4392-8770-cffd10961f9c","","500","500","fixation","","<div class = centerbox><div class = fixation>+</div></div>","none","500","test","","","","","","","","",""
"813","71","poldrack-categorize","210","430137","0.0-210.0","4ee353dc-84d4-4392-8770-cffd10961f9c","","1500","250","stim","","<div class = centerbox><div class = stroop-stim style = ""color:green"">RED</div></div>","66,71,82","1500","test","true","71","500","incongruent","green","red","","",""
"-1","-1","poldrack-single-stim","211","430897","0.0-211.0","4ee353dc-84d4-4392-8770-cffd10961f9c","","500","500","fixation","","<div class = centerbox><div class = fixation>+</div></div>","none","500","test","","","","","","","","",""
"598","66","poldrack-categorize","212","433411","0.0-212.0","4ee353dc-84d4-4392-8770-cffd10961f9c","","1500","250","stim","","<div class = centerbox><div class = stroop-stim style = ""color:blue"">RED</div></div>","66,71,82","1500","test","true","66","500","incongruent","blue","red","","",""
"-1","-1","poldrack-single-stim","213","434169","0.0-213.0","4ee353dc-84d4-4392-8770-cffd10961f9c","","500","500","fixation","","<div class = centerbox><div class = fixation>+</div></div>","none","500","test","","","","","","","","",""
"546","66","poldrack-categorize","214","436679","0.0-214.0","4ee353dc-84d4-4392-8770-cffd10961f9c","","1500","250","stim","","<div class = centerbox><div class = stroop-stim style = ""color:blue"">BLUE</div></div>","66,71,82","1500","test","true","66","500","congruent","blue","blue","","",""
"-1","-1","poldrack-single-stim","215","437439","0.0-215.0","4ee353dc-84d4-4392-8770-cffd10961f9c","","500","500","fixation","","<div class = centerbox><div class = fixation>+</div></div>","none","500","test","","","","","","","","",""
"627","82","poldrack-categorize","216","439947","0.0-216.0","4ee353dc-84d4-4392-8770-cffd10961f9c","","1500","250","stim","","<div class = centerbox><div class = stroop-stim style = ""color:red"">GREEN</div></div>","66,71,82","1500","test","true","82","500","incongruent","red","green","","",""
"-1","-1","poldrack-single-stim","217","440707","0.0-217.0","4ee353dc-84d4-4392-8770-cffd10961f9c","","500","500","fixation","","<div class = centerbox><div class = fixation>+</div></div>","none","500","test","","","","","","","","",""
"561","82","poldrack-categorize","218","443214","0.0-218.0","4ee353dc-84d4-4392-8770-cffd10961f9c","","1500","250","stim","","<div class = centerbox><div class = stroop-stim style = ""color:red"">RED</div></div>","66,71,82","1500","test","true","82","500","congruent","red","red","","",""
"-1","-1","poldrack-single-stim","219","443975","0.0-219.0","4ee353dc-84d4-4392-8770-cffd10961f9c","","500","500","fixation","","<div class = centerbox><div class = fixation>+</div></div>","none","500","test","","","","","","","","",""
"467","82","poldrack-categorize","220","446481","0.0-220.0","4ee353dc-84d4-4392-8770-cffd10961f9c","","1500","250","stim","","<div class = centerbox><div class = stroop-stim style = ""color:red"">GREEN</div></div>","66,71,82","1500","test","true","82","500","incongruent","red","green","","",""
"-1","-1","poldrack-single-stim","221","447237","0.0-221.0","4ee353dc-84d4-4392-8770-cffd10961f9c","","500","500","fixation","","<div class = centerbox><div class = fixation>+</div></div>","none","500","test","","","","","","","","",""
"429","82","poldrack-categorize","222","449745","0.0-222.0","4ee353dc-84d4-4392-8770-cffd10961f9c","","1500","250","stim","","<div class = centerbox><div class = stroop-stim style = ""color:red"">GREEN</div></div>","66,71,82","1500","test","true","82","500","incongruent","red","green","","",""
"-1","-1","poldrack-single-stim","223","450506","0.0-223.0","4ee353dc-84d4-4392-8770-cffd10961f9c","","500","500","fixation","","<div class = centerbox><div class = fixation>+</div></div>","none","500","test","","","","","","","","",""
"959","66","poldrack-categorize","224","453013","0.0-224.0","4ee353dc-84d4-4392-8770-cffd10961f9c","","1500","250","stim","","<div class = centerbox><div class = stroop-stim style = ""color:blue"">BLUE</div></div>","66,71,82","1500","test","true","66","500","congruent","blue","blue","","",""
"-1","-1","poldrack-single-stim","225","453773","0.0-225.0","4ee353dc-84d4-4392-8770-cffd10961f9c","","500","500","fixation","","<div class = centerbox><div class = fixation>+</div></div>","none","500","test","","","","","","","","",""
"424","66","poldrack-categorize","226","456287","0.0-226.0","4ee353dc-84d4-4392-8770-cffd10961f9c","","1500","250","stim","","<div class = centerbox><div class = stroop-stim style = ""color:blue"">BLUE</div></div>","66,71,82","1500","test","true","66","500","congruent","blue","blue","","",""
"-1","-1","poldrack-single-stim","227","457042","0.0-227.0","4ee353dc-84d4-4392-8770-cffd10961f9c","","500","500","fixation","","<div class = centerbox><div class = fixation>+</div></div>","none","500","test","","","","","","","","",""
"614","66","poldrack-categorize","228","459549","0.0-228.0","4ee353dc-84d4-4392-8770-cffd10961f9c","","1500","250","stim","","<div class = centerbox><div class = stroop-stim style = ""color:green"">BLUE</div></div>","66,71,82","1500","test","false","71","500","incongruent","green","blue","","",""
"-1","-1","poldrack-single-stim","229","460304","0.0-229.0","4ee353dc-84d4-4392-8770-cffd10961f9c","","500","500","fixation","","<div class = centerbox><div class = fixation>+</div></div>","none","500","test","","","","","","","","",""
"685","71","poldrack-categorize","230","462817","0.0-230.0","4ee353dc-84d4-4392-8770-cffd10961f9c","","1500","250","stim","","<div class = centerbox><div class = stroop-stim style = ""color:green"">GREEN</div></div>","66,71,82","1500","test","true","71","500","congruent","green","green","","",""
"-1","-1","poldrack-single-stim","231","463577","0.0-231.0","4ee353dc-84d4-4392-8770-cffd10961f9c","","500","500","fixation","","<div class = centerbox><div class = fixation>+</div></div>","none","500","test","","","","","","","","",""
"493","71","poldrack-categorize","232","466086","0.0-232.0","4ee353dc-84d4-4392-8770-cffd10961f9c","","1500","250","stim","","<div class = centerbox><div class = stroop-stim style = ""color:green"">GREEN</div></div>","66,71,82","1500","test","true","71","500","congruent","green","green","","",""
"-1","-1","poldrack-single-stim","233","466846","0.0-233.0","4ee353dc-84d4-4392-8770-cffd10961f9c","","500","500","fixation","","<div class = centerbox><div class = fixation>+</div></div>","none","500","test","","","","","","","","",""
"592","82","poldrack-categorize","234","469359","0.0-234.0","4ee353dc-84d4-4392-8770-cffd10961f9c","","1500","250","stim","","<div class = centerbox><div class = stroop-stim style = ""color:red"">RED</div></div>","66,71,82","1500","test","true","82","500","congruent","red","red","","",""
"-1","-1","poldrack-single-stim","235","470119","0.0-235.0","4ee353dc-84d4-4392-8770-cffd10961f9c","","500","500","fixation","","<div class = centerbox><div class = fixation>+</div></div>","none","500","test","","","","","","","","",""
"877","66","poldrack-categorize","236","472633","0.0-236.0","4ee353dc-84d4-4392-8770-cffd10961f9c","","1500","250","stim","","<div class = centerbox><div class = stroop-stim style = ""color:blue"">GREEN</div></div>","66,71,82","1500","test","true","66","500","incongruent","blue","green","","",""
"-1","-1","poldrack-single-stim","237","473393","0.0-237.0","4ee353dc-84d4-4392-8770-cffd10961f9c","","500","500","fixation","","<div class = centerbox><div class = fixation>+</div></div>","none","500","test","","","","","","","","",""
"669","66","poldrack-categorize","238","475906","0.0-238.0","4ee353dc-84d4-4392-8770-cffd10961f9c","","1500","250","stim","","<div class = centerbox><div class = stroop-stim style = ""color:blue"">BLUE</div></div>","66,71,82","1500","test","true","66","500","congruent","blue","blue","","",""
"-1","-1","poldrack-single-stim","239","476661","0.0-239.0","4ee353dc-84d4-4392-8770-cffd10961f9c","","500","500","fixation","","<div class = centerbox><div class = fixation>+</div></div>","none","500","test","","","","","","","","",""
"625","71","poldrack-categorize","240","479174","0.0-240.0","4ee353dc-84d4-4392-8770-cffd10961f9c","","1500","250","stim","","<div class = centerbox><div class = stroop-stim style = ""color:green"">RED</div></div>","66,71,82","1500","test","true","71","500","incongruent","green","red","","",""
"-1","-1","poldrack-single-stim","241","479934","0.0-241.0","4ee353dc-84d4-4392-8770-cffd10961f9c","","500","500","fixation","","<div class = centerbox><div class = fixation>+</div></div>","none","500","test","","","","","","","","",""
"622","71","poldrack-categorize","242","482448","0.0-242.0","4ee353dc-84d4-4392-8770-cffd10961f9c","","1500","250","stim","","<div class = centerbox><div class = stroop-stim style = ""color:green"">RED</div></div>","66,71,82","1500","test","true","71","500","incongruent","green","red","","",""
"-1","-1","poldrack-single-stim","243","483203","0.0-243.0","4ee353dc-84d4-4392-8770-cffd10961f9c","","500","500","fixation","","<div class = centerbox><div class = fixation>+</div></div>","none","500","test","","","","","","","","",""
"653","66","poldrack-categorize","244","485710","0.0-244.0","4ee353dc-84d4-4392-8770-cffd10961f9c","","1500","250","stim","","<div class = centerbox><div class = stroop-stim style = ""color:blue"">GREEN</div></div>","66,71,82","1500","test","true","66","500","incongruent","blue","green","","",""
"19626","","survey-text","245","505592","0.0-246.0","4ee353dc-84d4-4392-8770-cffd10961f9c","","","","post task questions","","","","","","","","","","","","{""Q0"":""answer with the color of the letters, not the actual word"",""Q1"":""""}","",""
"-1","-1","poldrack-text","246","686591","0.0-247.0","4ee353dc-84d4-4392-8770-cffd10961f9c","<div class = centerbox><p class = center-block-text>Thanks for completing this task!</p><p class = center-block-text>Press <strong>enter</strong> to continue.</p></div>","180000","0","end","","","","","","","","","","","","","stroop","true"
"134562","13","text","247","821190","0.0-248.0","4ee353dc-84d4-4392-8770-cffd10961f9c","","","","","","","","","","","","","","","","","",""
