rt,key_press,trial_type,trial_index,time_elapsed,internal_node_id,subject,text,block_duration,timing_post_trial,trial_id,view_history,stimulus,possible_responses,stim_duration,exp_stage,stim_place,stim_id,condition,correct,correct_response,responses,exp_id,feedback_duration,stim_color,stim_word,credit_var1746,13,text,0,1748,0.0-0.0,b5c68b66-bccf-4182-8da5-8c7faf27b943,,,,,,,,,,,,,,,,,,,,3487,13,poldrack-text,389,668789,0.0-388.0-0.0,b5c68b66-bccf-4182-8da5-8c7faf27b943,<div class = centerbox><p class = center-block-text>Done with instructions. Press <strong>enter</strong> to continue.</p></div>,3487,0,instruction,,,,,,,,,,,,,,,,27245,,poldrack-instructions,390,696034,0.0-388.0-1.0,b5c68b66-bccf-4182-8da5-8c7faf27b943,,,,instruction,"[{""page_index"":0,""viewing_time"":27245}]",,,,,,,,,,,,,,,9738,13,poldrack-text,391,706779,0.0-389.0,b5c68b66-bccf-4182-8da5-8c7faf27b943,"<div class = centerbox><p class = block-text>We will start with a few practice trials. Remember, press the key corresponding to the <strong>ink</strong> color of the word: ""r"" for words colored red, ""b"" for words colored blue, and ""g"" for words colored green.</p><p class = block-text>Press <strong>enter</strong> to begin practice.</p></div>",9738,1000,practice_intro,,,,,,,,,,,,,,,,-1,-1,poldrack-single-stim,392,708287,0.0-390.0,b5c68b66-bccf-4182-8da5-8c7faf27b943,,500,500,fixation,,<div class = centerbox><div class = fixation>+</div></div>,none,500,practice,,,,,,,,,,,542,82,poldrack-categorize,393,710794,0.0-391.0,b5c68b66-bccf-4182-8da5-8c7faf27b943,,1500,250,stim,,"<div class = centerbox><div class = stroop-stim style = ""color:red"">RED</div></div>","66,71,82",1500,practice,,,congruent,TRUE,82,,,500,red,red,-1,-1,poldrack-single-stim,394,711551,0.0-392.0,b5c68b66-bccf-4182-8da5-8c7faf27b943,,500,500,fixation,,<div class = centerbox><div class = fixation>+</div></div>,none,500,practice,,,,,,,,,,,652,71,poldrack-categorize,395,714062,0.0-393.0,b5c68b66-bccf-4182-8da5-8c7faf27b943,,1500,250,stim,,"<div class = centerbox><div class = stroop-stim style = ""color:green"">RED</div></div>","66,71,82",1500,practice,,,incongruent,TRUE,71,,,500,green,red,-1,-1,poldrack-single-stim,396,714820,0.0-394.0,b5c68b66-bccf-4182-8da5-8c7faf27b943,,500,500,fixation,,<div class = centerbox><div class = fixation>+</div></div>,none,500,practice,,,,,,,,,,,548,82,poldrack-categorize,397,717328,0.0-395.0,b5c68b66-bccf-4182-8da5-8c7faf27b943,,1500,250,stim,,"<div class = centerbox><div class = stroop-stim style = ""color:red"">RED</div></div>","66,71,82",1500,practice,,,congruent,TRUE,82,,,500,red,red,-1,-1,poldrack-single-stim,398,718085,0.0-396.0,b5c68b66-bccf-4182-8da5-8c7faf27b943,,500,500,fixation,,<div class = centerbox><div class = fixation>+</div></div>,none,500,practice,,,,,,,,,,,694,82,poldrack-categorize,399,720598,0.0-397.0,b5c68b66-bccf-4182-8da5-8c7faf27b943,,1500,250,stim,,"<div class = centerbox><div class = stroop-stim style = ""color:red"">GREEN</div></div>","66,71,82",1500,practice,,,incongruent,TRUE,82,,,500,red,green,-1,-1,poldrack-single-stim,400,721359,0.0-398.0,b5c68b66-bccf-4182-8da5-8c7faf27b943,,500,500,fixation,,<div class = centerbox><div class = fixation>+</div></div>,none,500,practice,,,,,,,,,,,723,66,poldrack-categorize,401,723872,0.0-399.0,b5c68b66-bccf-4182-8da5-8c7faf27b943,,1500,250,stim,,"<div class = centerbox><div class = stroop-stim style = ""color:blue"">BLUE</div></div>","66,71,82",1500,practice,,,congruent,TRUE,66,,,500,blue,blue,-1,-1,poldrack-single-stim,402,724633,0.0-400.0,b5c68b66-bccf-4182-8da5-8c7faf27b943,,500,500,fixation,,<div class = centerbox><div class = fixation>+</div></div>,none,500,practice,,,,,,,,,,,519,82,poldrack-categorize,403,727146,0.0-401.0,b5c68b66-bccf-4182-8da5-8c7faf27b943,,1500,250,stim,,"<div class = centerbox><div class = stroop-stim style = ""color:red"">RED</div></div>","66,71,82",1500,practice,,,congruent,TRUE,82,,,500,red,red,-1,-1,poldrack-single-stim,404,727906,0.0-402.0,b5c68b66-bccf-4182-8da5-8c7faf27b943,,500,500,fixation,,<div class = centerbox><div class = fixation>+</div></div>,none,500,practice,,,,,,,,,,,582,82,poldrack-categorize,405,730420,0.0-403.0,b5c68b66-bccf-4182-8da5-8c7faf27b943,,1500,250,stim,,"<div class = centerbox><div class = stroop-stim style = ""color:red"">BLUE</div></div>","66,71,82",1500,practice,,,incongruent,TRUE,82,,,500,red,blue,-1,-1,poldrack-single-stim,406,731180,0.0-404.0,b5c68b66-bccf-4182-8da5-8c7faf27b943,,500,500,fixation,,<div class = centerbox><div class = fixation>+</div></div>,none,500,practice,,,,,,,,,,,1028,82,poldrack-categorize,407,733693,0.0-405.0,b5c68b66-bccf-4182-8da5-8c7faf27b943,,1500,250,stim,,"<div class = centerbox><div class = stroop-stim style = ""color:red"">BLUE</div></div>","66,71,82",1500,practice,,,incongruent,TRUE,82,,,500,red,blue,-1,-1,poldrack-single-stim,408,734454,0.0-406.0,b5c68b66-bccf-4182-8da5-8c7faf27b943,,500,500,fixation,,<div class = centerbox><div class = fixation>+</div></div>,none,500,practice,,,,,,,,,,,570,66,poldrack-categorize,409,736967,0.0-407.0,b5c68b66-bccf-4182-8da5-8c7faf27b943,,1500,250,stim,,"<div class = centerbox><div class = stroop-stim style = ""color:blue"">BLUE</div></div>","66,71,82",1500,practice,,,congruent,TRUE,66,,,500,blue,blue,-1,-1,poldrack-single-stim,410,737728,0.0-408.0,b5c68b66-bccf-4182-8da5-8c7faf27b943,,500,500,fixation,,<div class = centerbox><div class = fixation>+</div></div>,none,500,practice,,,,,,,,,,,369,71,poldrack-categorize,411,740239,0.0-409.0,b5c68b66-bccf-4182-8da5-8c7faf27b943,,1500,250,stim,,"<div class = centerbox><div class = stroop-stim style = ""color:green"">GREEN</div></div>","66,71,82",1500,practice,,,congruent,TRUE,71,,,500,green,green,-1,-1,poldrack-single-stim,412,740996,0.0-410.0,b5c68b66-bccf-4182-8da5-8c7faf27b943,,500,500,fixation,,<div class = centerbox><div class = fixation>+</div></div>,none,500,practice,,,,,,,,,,,963,66,poldrack-categorize,413,743511,0.0-411.0,b5c68b66-bccf-4182-8da5-8c7faf27b943,,1500,250,stim,,"<div class = centerbox><div class = stroop-stim style = ""color:blue"">RED</div></div>","66,71,82",1500,practice,,,incongruent,TRUE,66,,,500,blue,red,-1,-1,poldrack-single-stim,414,744269,0.0-412.0,b5c68b66-bccf-4182-8da5-8c7faf27b943,,500,500,fixation,,<div class = centerbox><div class = fixation>+</div></div>,none,500,practice,,,,,,,,,,,719,71,poldrack-categorize,415,746777,0.0-413.0,b5c68b66-bccf-4182-8da5-8c7faf27b943,,1500,250,stim,,"<div class = centerbox><div class = stroop-stim style = ""color:green"">BLUE</div></div>","66,71,82",1500,practice,,,incongruent,TRUE,71,,,500,green,blue,-1,-1,poldrack-single-stim,416,747538,0.0-414.0,b5c68b66-bccf-4182-8da5-8c7faf27b943,,500,500,fixation,,<div class = centerbox><div class = fixation>+</div></div>,none,500,practice,,,,,,,,,,,566,66,poldrack-categorize,417,750051,0.0-415.0,b5c68b66-bccf-4182-8da5-8c7faf27b943,,1500,250,stim,,"<div class = centerbox><div class = stroop-stim style = ""color:blue"">RED</div></div>","66,71,82",1500,practice,,,incongruent,TRUE,66,,,500,blue,red,-1,-1,poldrack-single-stim,418,750811,0.0-416.0,b5c68b66-bccf-4182-8da5-8c7faf27b943,,500,500,fixation,,<div class = centerbox><div class = fixation>+</div></div>,none,500,practice,,,,,,,,,,,764,71,poldrack-categorize,419,753324,0.0-417.0,b5c68b66-bccf-4182-8da5-8c7faf27b943,,1500,250,stim,,"<div class = centerbox><div class = stroop-stim style = ""color:green"">BLUE</div></div>","66,71,82",1500,practice,,,incongruent,TRUE,71,,,500,green,blue,-1,-1,poldrack-single-stim,420,754085,0.0-418.0,b5c68b66-bccf-4182-8da5-8c7faf27b943,,500,500,fixation,,<div class = centerbox><div class = fixation>+</div></div>,none,500,practice,,,,,,,,,,,627,66,poldrack-categorize,421,756598,0.0-419.0,b5c68b66-bccf-4182-8da5-8c7faf27b943,,1500,250,stim,,"<div class = centerbox><div class = stroop-stim style = ""color:blue"">BLUE</div></div>","66,71,82",1500,practice,,,congruent,TRUE,66,,,500,blue,blue,-1,-1,poldrack-single-stim,422,757356,0.0-420.0,b5c68b66-bccf-4182-8da5-8c7faf27b943,,500,500,fixation,,<div class = centerbox><div class = fixation>+</div></div>,none,500,practice,,,,,,,,,,,645,66,poldrack-categorize,423,759866,0.0-421.0,b5c68b66-bccf-4182-8da5-8c7faf27b943,,1500,250,stim,,"<div class = centerbox><div class = stroop-stim style = ""color:blue"">GREEN</div></div>","66,71,82",1500,practice,,,incongruent,TRUE,66,,,500,blue,green,-1,-1,poldrack-single-stim,424,760627,0.0-422.0,b5c68b66-bccf-4182-8da5-8c7faf27b943,,500,500,fixation,,<div class = centerbox><div class = fixation>+</div></div>,none,500,practice,,,,,,,,,,,755,66,poldrack-categorize,425,763140,0.0-423.0,b5c68b66-bccf-4182-8da5-8c7faf27b943,,1500,250,stim,,"<div class = centerbox><div class = stroop-stim style = ""color:blue"">GREEN</div></div>","66,71,82",1500,practice,,,incongruent,TRUE,66,,,500,blue,green,-1,-1,poldrack-single-stim,426,763901,0.0-424.0,b5c68b66-bccf-4182-8da5-8c7faf27b943,,500,500,fixation,,<div class = centerbox><div class = fixation>+</div></div>,none,500,practice,,,,,,,,,,,545,71,poldrack-categorize,427,766414,0.0-425.0,b5c68b66-bccf-4182-8da5-8c7faf27b943,,1500,250,stim,,"<div class = centerbox><div class = stroop-stim style = ""color:green"">GREEN</div></div>","66,71,82",1500,practice,,,congruent,TRUE,71,,,500,green,green,-1,-1,poldrack-single-stim,428,767175,0.0-426.0,b5c68b66-bccf-4182-8da5-8c7faf27b943,,500,500,fixation,,<div class = centerbox><div class = fixation>+</div></div>,none,500,practice,,,,,,,,,,,430,82,poldrack-categorize,429,769686,0.0-427.0,b5c68b66-bccf-4182-8da5-8c7faf27b943,,1500,250,stim,,"<div class = centerbox><div class = stroop-stim style = ""color:red"">RED</div></div>","66,71,82",1500,practice,,,congruent,TRUE,82,,,500,red,red,-1,-1,poldrack-single-stim,430,770443,0.0-428.0,b5c68b66-bccf-4182-8da5-8c7faf27b943,,500,500,fixation,,<div class = centerbox><div class = fixation>+</div></div>,none,500,practice,,,,,,,,,,,700,71,poldrack-categorize,431,772956,0.0-429.0,b5c68b66-bccf-4182-8da5-8c7faf27b943,,1500,250,stim,,"<div class = centerbox><div class = stroop-stim style = ""color:green"">GREEN</div></div>","66,71,82",1500,practice,,,congruent,TRUE,71,,,500,green,green,-1,-1,poldrack-single-stim,432,773717,0.0-430.0,b5c68b66-bccf-4182-8da5-8c7faf27b943,,500,500,fixation,,<div class = centerbox><div class = fixation>+</div></div>,none,500,practice,,,,,,,,,,,545,66,poldrack-categorize,433,776230,0.0-431.0,b5c68b66-bccf-4182-8da5-8c7faf27b943,,1500,250,stim,,"<div class = centerbox><div class = stroop-stim style = ""color:blue"">BLUE</div></div>","66,71,82",1500,practice,,,congruent,TRUE,66,,,500,blue,blue,-1,-1,poldrack-single-stim,434,776990,0.0-432.0,b5c68b66-bccf-4182-8da5-8c7faf27b943,,500,500,fixation,,<div class = centerbox><div class = fixation>+</div></div>,none,500,practice,,,,,,,,,,,543,71,poldrack-categorize,435,779503,0.0-433.0,b5c68b66-bccf-4182-8da5-8c7faf27b943,,1500,250,stim,,"<div class = centerbox><div class = stroop-stim style = ""color:green"">RED</div></div>","66,71,82",1500,practice,,,incongruent,TRUE,71,,,500,green,red,-1,-1,poldrack-single-stim,436,780264,0.0-434.0,b5c68b66-bccf-4182-8da5-8c7faf27b943,,500,500,fixation,,<div class = centerbox><div class = fixation>+</div></div>,none,500,practice,,,,,,,,,,,485,71,poldrack-categorize,437,782777,0.0-435.0,b5c68b66-bccf-4182-8da5-8c7faf27b943,,1500,250,stim,,"<div class = centerbox><div class = stroop-stim style = ""color:green"">GREEN</div></div>","66,71,82",1500,practice,,,congruent,TRUE,71,,,500,green,green,-1,-1,poldrack-single-stim,438,783532,0.0-436.0,b5c68b66-bccf-4182-8da5-8c7faf27b943,,500,500,fixation,,<div class = centerbox><div class = fixation>+</div></div>,none,500,practice,,,,,,,,,,,633,82,poldrack-categorize,439,786045,0.0-437.0,b5c68b66-bccf-4182-8da5-8c7faf27b943,,1500,250,stim,,"<div class = centerbox><div class = stroop-stim style = ""color:red"">GREEN</div></div>","66,71,82",1500,practice,,,incongruent,TRUE,82,,,500,red,green,1997,13,poldrack-text,440,788294,0.0-439.0,b5c68b66-bccf-4182-8da5-8c7faf27b943,<div class = centerbox><p class = center-block-text>We will now start the test. Respond exactly like you did during practice.</p><p class = center-block-text>Press <strong>enter</strong> to begin the test.</p></div>,1997,1000,test_intro,,,,,,,,,,,,,,,,-1,-1,poldrack-single-stim,441,789800,0.0-440.0,b5c68b66-bccf-4182-8da5-8c7faf27b943,,500,500,fixation,,<div class = centerbox><div class = fixation>+</div></div>,none,500,test,,,,,,,,,,,495,82,poldrack-categorize,442,792308,0.0-441.0,b5c68b66-bccf-4182-8da5-8c7faf27b943,,1500,250,stim,,"<div class = centerbox><div class = stroop-stim style = ""color:red"">RED</div></div>","66,71,82",1500,test,,,congruent,TRUE,82,,,500,red,red,-1,-1,poldrack-single-stim,443,793067,0.0-442.0,b5c68b66-bccf-4182-8da5-8c7faf27b943,,500,500,fixation,,<div class = centerbox><div class = fixation>+</div></div>,none,500,test,,,,,,,,,,,572,82,poldrack-categorize,444,795576,0.0-443.0,b5c68b66-bccf-4182-8da5-8c7faf27b943,,1500,250,stim,,"<div class = centerbox><div class = stroop-stim style = ""color:red"">GREEN</div></div>","66,71,82",1500,test,,,incongruent,TRUE,82,,,500,red,green,-1,-1,poldrack-single-stim,445,796334,0.0-444.0,b5c68b66-bccf-4182-8da5-8c7faf27b943,,500,500,fixation,,<div class = centerbox><div class = fixation>+</div></div>,none,500,test,,,,,,,,,,,505,82,poldrack-categorize,446,798844,0.0-445.0,b5c68b66-bccf-4182-8da5-8c7faf27b943,,1500,250,stim,,"<div class = centerbox><div class = stroop-stim style = ""color:red"">RED</div></div>","66,71,82",1500,test,,,congruent,TRUE,82,,,500,red,red,-1,-1,poldrack-single-stim,447,799599,0.0-446.0,b5c68b66-bccf-4182-8da5-8c7faf27b943,,500,500,fixation,,<div class = centerbox><div class = fixation>+</div></div>,none,500,test,,,,,,,,,,,447,71,poldrack-categorize,448,802112,0.0-447.0,b5c68b66-bccf-4182-8da5-8c7faf27b943,,1500,250,stim,,"<div class = centerbox><div class = stroop-stim style = ""color:green"">GREEN</div></div>","66,71,82",1500,test,,,congruent,TRUE,71,,,500,green,green,-1,-1,poldrack-single-stim,449,802873,0.0-448.0,b5c68b66-bccf-4182-8da5-8c7faf27b943,,500,500,fixation,,<div class = centerbox><div class = fixation>+</div></div>,none,500,test,,,,,,,,,,,476,82,poldrack-categorize,450,805386,0.0-449.0,b5c68b66-bccf-4182-8da5-8c7faf27b943,,1500,250,stim,,"<div class = centerbox><div class = stroop-stim style = ""color:red"">RED</div></div>","66,71,82",1500,test,,,congruent,TRUE,82,,,500,red,red,-1,-1,poldrack-single-stim,451,806147,0.0-450.0,b5c68b66-bccf-4182-8da5-8c7faf27b943,,500,500,fixation,,<div class = centerbox><div class = fixation>+</div></div>,none,500,test,,,,,,,,,,,513,82,poldrack-categorize,452,808660,0.0-451.0,b5c68b66-bccf-4182-8da5-8c7faf27b943,,1500,250,stim,,"<div class = centerbox><div class = stroop-stim style = ""color:red"">RED</div></div>","66,71,82",1500,test,,,congruent,TRUE,82,,,500,red,red,-1,-1,poldrack-single-stim,453,809421,0.0-452.0,b5c68b66-bccf-4182-8da5-8c7faf27b943,,500,500,fixation,,<div class = centerbox><div class = fixation>+</div></div>,none,500,test,,,,,,,,,,,473,82,poldrack-categorize,454,811928,0.0-453.0,b5c68b66-bccf-4182-8da5-8c7faf27b943,,1500,250,stim,,"<div class = centerbox><div class = stroop-stim style = ""color:red"">RED</div></div>","66,71,82",1500,test,,,congruent,TRUE,82,,,500,red,red,-1,-1,poldrack-single-stim,455,812688,0.0-454.0,b5c68b66-bccf-4182-8da5-8c7faf27b943,,500,500,fixation,,<div class = centerbox><div class = fixation>+</div></div>,none,500,test,,,,,,,,,,,459,82,poldrack-categorize,456,815198,0.0-455.0,b5c68b66-bccf-4182-8da5-8c7faf27b943,,1500,250,stim,,"<div class = centerbox><div class = stroop-stim style = ""color:red"">RED</div></div>","66,71,82",1500,test,,,congruent,TRUE,82,,,500,red,red,-1,-1,poldrack-single-stim,457,815953,0.0-456.0,b5c68b66-bccf-4182-8da5-8c7faf27b943,,500,500,fixation,,<div class = centerbox><div class = fixation>+</div></div>,none,500,test,,,,,,,,,,,603,82,poldrack-categorize,458,818464,0.0-457.0,b5c68b66-bccf-4182-8da5-8c7faf27b943,,1500,250,stim,,"<div class = centerbox><div class = stroop-stim style = ""color:red"">BLUE</div></div>","66,71,82",1500,test,,,incongruent,TRUE,82,,,500,red,blue,-1,-1,poldrack-single-stim,459,819225,0.0-458.0,b5c68b66-bccf-4182-8da5-8c7faf27b943,,500,500,fixation,,<div class = centerbox><div class = fixation>+</div></div>,none,500,test,,,,,,,,,,,1213,66,poldrack-categorize,460,821738,0.0-459.0,b5c68b66-bccf-4182-8da5-8c7faf27b943,,1500,250,stim,,"<div class = centerbox><div class = stroop-stim style = ""color:blue"">GREEN</div></div>","66,71,82",1500,test,,,incongruent,TRUE,66,,,500,blue,green,-1,-1,poldrack-single-stim,461,822499,0.0-460.0,b5c68b66-bccf-4182-8da5-8c7faf27b943,,500,500,fixation,,<div class = centerbox><div class = fixation>+</div></div>,none,500,test,,,,,,,,,,,553,82,poldrack-categorize,462,825012,0.0-461.0,b5c68b66-bccf-4182-8da5-8c7faf27b943,,1500,250,stim,,"<div class = centerbox><div class = stroop-stim style = ""color:red"">BLUE</div></div>","66,71,82",1500,test,,,incongruent,TRUE,82,,,500,red,blue,-1,-1,poldrack-single-stim,463,825771,0.0-462.0,b5c68b66-bccf-4182-8da5-8c7faf27b943,,500,500,fixation,,<div class = centerbox><div class = fixation>+</div></div>,none,500,test,,,,,,,,,,,558,66,poldrack-categorize,464,828285,0.0-463.0,b5c68b66-bccf-4182-8da5-8c7faf27b943,,1500,250,stim,,"<div class = centerbox><div class = stroop-stim style = ""color:blue"">GREEN</div></div>","66,71,82",1500,test,,,incongruent,TRUE,66,,,500,blue,green,-1,-1,poldrack-single-stim,465,829046,0.0-464.0,b5c68b66-bccf-4182-8da5-8c7faf27b943,,500,500,fixation,,<div class = centerbox><div class = fixation>+</div></div>,none,500,test,,,,,,,,,,,574,82,poldrack-categorize,466,831556,0.0-465.0,b5c68b66-bccf-4182-8da5-8c7faf27b943,,1500,250,stim,,"<div class = centerbox><div class = stroop-stim style = ""color:blue"">RED</div></div>","66,71,82",1500,test,,,incongruent,FALSE,66,,,500,blue,red,-1,-1,poldrack-single-stim,467,832314,0.0-466.0,b5c68b66-bccf-4182-8da5-8c7faf27b943,,500,500,fixation,,<div class = centerbox><div class = fixation>+</div></div>,none,500,test,,,,,,,,,,,799,71,poldrack-categorize,468,834827,0.0-467.0,b5c68b66-bccf-4182-8da5-8c7faf27b943,,1500,250,stim,,"<div class = centerbox><div class = stroop-stim style = ""color:green"">RED</div></div>","66,71,82",1500,test,,,incongruent,TRUE,71,,,500,green,red,-1,-1,poldrack-single-stim,469,835588,0.0-468.0,b5c68b66-bccf-4182-8da5-8c7faf27b943,,500,500,fixation,,<div class = centerbox><div class = fixation>+</div></div>,none,500,test,,,,,,,,,,,951,66,poldrack-categorize,470,838098,0.0-469.0,b5c68b66-bccf-4182-8da5-8c7faf27b943,,1500,250,stim,,"<div class = centerbox><div class = stroop-stim style = ""color:blue"">GREEN</div></div>","66,71,82",1500,test,,,incongruent,TRUE,66,,,500,blue,green,-1,-1,poldrack-single-stim,471,838856,0.0-470.0,b5c68b66-bccf-4182-8da5-8c7faf27b943,,500,500,fixation,,<div class = centerbox><div class = fixation>+</div></div>,none,500,test,,,,,,,,,,,514,71,poldrack-categorize,472,841369,0.0-471.0,b5c68b66-bccf-4182-8da5-8c7faf27b943,,1500,250,stim,,"<div class = centerbox><div class = stroop-stim style = ""color:green"">GREEN</div></div>","66,71,82",1500,test,,,congruent,TRUE,71,,,500,green,green,-1,-1,poldrack-single-stim,473,842130,0.0-472.0,b5c68b66-bccf-4182-8da5-8c7faf27b943,,500,500,fixation,,<div class = centerbox><div class = fixation>+</div></div>,none,500,test,,,,,,,,,,,394,66,poldrack-categorize,474,844643,0.0-473.0,b5c68b66-bccf-4182-8da5-8c7faf27b943,,1500,250,stim,,"<div class = centerbox><div class = stroop-stim style = ""color:blue"">BLUE</div></div>","66,71,82",1500,test,,,congruent,TRUE,66,,,500,blue,blue,-1,-1,poldrack-single-stim,475,845403,0.0-474.0,b5c68b66-bccf-4182-8da5-8c7faf27b943,,500,500,fixation,,<div class = centerbox><div class = fixation>+</div></div>,none,500,test,,,,,,,,,,,575,71,poldrack-categorize,476,847917,0.0-475.0,b5c68b66-bccf-4182-8da5-8c7faf27b943,,1500,250,stim,,"<div class = centerbox><div class = stroop-stim style = ""color:green"">GREEN</div></div>","66,71,82",1500,test,,,congruent,TRUE,71,,,500,green,green,-1,-1,poldrack-single-stim,477,848677,0.0-476.0,b5c68b66-bccf-4182-8da5-8c7faf27b943,,500,500,fixation,,<div class = centerbox><div class = fixation>+</div></div>,none,500,test,,,,,,,,,,,749,82,poldrack-categorize,478,851191,0.0-477.0,b5c68b66-bccf-4182-8da5-8c7faf27b943,,1500,250,stim,,"<div class = centerbox><div class = stroop-stim style = ""color:red"">BLUE</div></div>","66,71,82",1500,test,,,incongruent,TRUE,82,,,500,red,blue,-1,-1,poldrack-single-stim,479,851951,0.0-478.0,b5c68b66-bccf-4182-8da5-8c7faf27b943,,500,500,fixation,,<div class = centerbox><div class = fixation>+</div></div>,none,500,test,,,,,,,,,,,587,66,poldrack-categorize,480,854464,0.0-479.0,b5c68b66-bccf-4182-8da5-8c7faf27b943,,1500,250,stim,,"<div class = centerbox><div class = stroop-stim style = ""color:blue"">BLUE</div></div>","66,71,82",1500,test,,,congruent,TRUE,66,,,500,blue,blue,-1,-1,poldrack-single-stim,481,855225,0.0-480.0,b5c68b66-bccf-4182-8da5-8c7faf27b943,,500,500,fixation,,<div class = centerbox><div class = fixation>+</div></div>,none,500,test,,,,,,,,,,,513,82,poldrack-categorize,482,857738,0.0-481.0,b5c68b66-bccf-4182-8da5-8c7faf27b943,,1500,250,stim,,"<div class = centerbox><div class = stroop-stim style = ""color:red"">RED</div></div>","66,71,82",1500,test,,,congruent,TRUE,82,,,500,red,red,-1,-1,poldrack-single-stim,483,858493,0.0-482.0,b5c68b66-bccf-4182-8da5-8c7faf27b943,,500,500,fixation,,<div class = centerbox><div class = fixation>+</div></div>,none,500,test,,,,,,,,,,,515,66,poldrack-categorize,484,861006,0.0-483.0,b5c68b66-bccf-4182-8da5-8c7faf27b943,,1500,250,stim,,"<div class = centerbox><div class = stroop-stim style = ""color:blue"">BLUE</div></div>","66,71,82",1500,test,,,congruent,TRUE,66,,,500,blue,blue,-1,-1,poldrack-single-stim,485,861767,0.0-484.0,b5c68b66-bccf-4182-8da5-8c7faf27b943,,500,500,fixation,,<div class = centerbox><div class = fixation>+</div></div>,none,500,test,,,,,,,,,,,1076,82,poldrack-categorize,486,864280,0.0-485.0,b5c68b66-bccf-4182-8da5-8c7faf27b943,,1500,250,stim,,"<div class = centerbox><div class = stroop-stim style = ""color:red"">GREEN</div></div>","66,71,82",1500,test,,,incongruent,TRUE,82,,,500,red,green,-1,-1,poldrack-single-stim,487,865035,0.0-486.0,b5c68b66-bccf-4182-8da5-8c7faf27b943,,500,500,fixation,,<div class = centerbox><div class = fixation>+</div></div>,none,500,test,,,,,,,,,,,575,71,poldrack-categorize,488,867548,0.0-487.0,b5c68b66-bccf-4182-8da5-8c7faf27b943,,1500,250,stim,,"<div class = centerbox><div class = stroop-stim style = ""color:green"">GREEN</div></div>","66,71,82",1500,test,,,congruent,TRUE,71,,,500,green,green,-1,-1,poldrack-single-stim,489,868308,0.0-488.0,b5c68b66-bccf-4182-8da5-8c7faf27b943,,500,500,fixation,,<div class = centerbox><div class = fixation>+</div></div>,none,500,test,,,,,,,,,,,701,71,poldrack-categorize,490,870822,0.0-489.0,b5c68b66-bccf-4182-8da5-8c7faf27b943,,1500,250,stim,,"<div class = centerbox><div class = stroop-stim style = ""color:green"">RED</div></div>","66,71,82",1500,test,,,incongruent,TRUE,71,,,500,green,red,-1,-1,poldrack-single-stim,491,871582,0.0-490.0,b5c68b66-bccf-4182-8da5-8c7faf27b943,,500,500,fixation,,<div class = centerbox><div class = fixation>+</div></div>,none,500,test,,,,,,,,,,,521,66,poldrack-categorize,492,874095,0.0-491.0,b5c68b66-bccf-4182-8da5-8c7faf27b943,,1500,250,stim,,"<div class = centerbox><div class = stroop-stim style = ""color:blue"">BLUE</div></div>","66,71,82",1500,test,,,congruent,TRUE,66,,,500,blue,blue,-1,-1,poldrack-single-stim,493,874856,0.0-492.0,b5c68b66-bccf-4182-8da5-8c7faf27b943,,500,500,fixation,,<div class = centerbox><div class = fixation>+</div></div>,none,500,test,,,,,,,,,,,569,66,poldrack-categorize,494,877369,0.0-493.0,b5c68b66-bccf-4182-8da5-8c7faf27b943,,1500,250,stim,,"<div class = centerbox><div class = stroop-stim style = ""color:blue"">BLUE</div></div>","66,71,82",1500,test,,,congruent,TRUE,66,,,500,blue,blue,-1,-1,poldrack-single-stim,495,878130,0.0-494.0,b5c68b66-bccf-4182-8da5-8c7faf27b943,,500,500,fixation,,<div class = centerbox><div class = fixation>+</div></div>,none,500,test,,,,,,,,,,,486,66,poldrack-categorize,496,880643,0.0-495.0,b5c68b66-bccf-4182-8da5-8c7faf27b943,,1500,250,stim,,"<div class = centerbox><div class = stroop-stim style = ""color:blue"">BLUE</div></div>","66,71,82",1500,test,,,congruent,TRUE,66,,,500,blue,blue,-1,-1,poldrack-single-stim,497,881404,0.0-496.0,b5c68b66-bccf-4182-8da5-8c7faf27b943,,500,500,fixation,,<div class = centerbox><div class = fixation>+</div></div>,none,500,test,,,,,,,,,,,572,82,poldrack-categorize,498,883917,0.0-497.0,b5c68b66-bccf-4182-8da5-8c7faf27b943,,1500,250,stim,,"<div class = centerbox><div class = stroop-stim style = ""color:red"">RED</div></div>","66,71,82",1500,test,,,congruent,TRUE,82,,,500,red,red,-1,-1,poldrack-single-stim,499,884677,0.0-498.0,b5c68b66-bccf-4182-8da5-8c7faf27b943,,500,500,fixation,,<div class = centerbox><div class = fixation>+</div></div>,none,500,test,,,,,,,,,,,619,71,poldrack-categorize,500,887191,0.0-499.0,b5c68b66-bccf-4182-8da5-8c7faf27b943,,1500,250,stim,,"<div class = centerbox><div class = stroop-stim style = ""color:red"">GREEN</div></div>","66,71,82",1500,test,,,incongruent,FALSE,82,,,500,red,green,-1,-1,poldrack-single-stim,501,887951,0.0-500.0,b5c68b66-bccf-4182-8da5-8c7faf27b943,,500,500,fixation,,<div class = centerbox><div class = fixation>+</div></div>,none,500,test,,,,,,,,,,,793,82,poldrack-categorize,502,890464,0.0-501.0,b5c68b66-bccf-4182-8da5-8c7faf27b943,,1500,250,stim,,"<div class = centerbox><div class = stroop-stim style = ""color:red"">BLUE</div></div>","66,71,82",1500,test,,,incongruent,TRUE,82,,,500,red,blue,-1,-1,poldrack-single-stim,503,891225,0.0-502.0,b5c68b66-bccf-4182-8da5-8c7faf27b943,,500,500,fixation,,<div class = centerbox><div class = fixation>+</div></div>,none,500,test,,,,,,,,,,,647,82,poldrack-categorize,504,893738,0.0-503.0,b5c68b66-bccf-4182-8da5-8c7faf27b943,,1500,250,stim,,"<div class = centerbox><div class = stroop-stim style = ""color:red"">GREEN</div></div>","66,71,82",1500,test,,,incongruent,TRUE,82,,,500,red,green,-1,-1,poldrack-single-stim,505,894496,0.0-504.0,b5c68b66-bccf-4182-8da5-8c7faf27b943,,500,500,fixation,,<div class = centerbox><div class = fixation>+</div></div>,none,500,test,,,,,,,,,,,616,71,poldrack-categorize,506,897006,0.0-505.0,b5c68b66-bccf-4182-8da5-8c7faf27b943,,1500,250,stim,,"<div class = centerbox><div class = stroop-stim style = ""color:green"">GREEN</div></div>","66,71,82",1500,test,,,congruent,TRUE,71,,,500,green,green,-1,-1,poldrack-single-stim,507,897767,0.0-506.0,b5c68b66-bccf-4182-8da5-8c7faf27b943,,500,500,fixation,,<div class = centerbox><div class = fixation>+</div></div>,none,500,test,,,,,,,,,,,865,71,poldrack-categorize,508,900280,0.0-507.0,b5c68b66-bccf-4182-8da5-8c7faf27b943,,1500,250,stim,,"<div class = centerbox><div class = stroop-stim style = ""color:green"">BLUE</div></div>","66,71,82",1500,test,,,incongruent,TRUE,71,,,500,green,blue,-1,-1,poldrack-single-stim,509,901041,0.0-508.0,b5c68b66-bccf-4182-8da5-8c7faf27b943,,500,500,fixation,,<div class = centerbox><div class = fixation>+</div></div>,none,500,test,,,,,,,,,,,973,71,poldrack-categorize,510,903554,0.0-509.0,b5c68b66-bccf-4182-8da5-8c7faf27b943,,1500,250,stim,,"<div class = centerbox><div class = stroop-stim style = ""color:green"">BLUE</div></div>","66,71,82",1500,test,,,incongruent,TRUE,71,,,500,green,blue,-1,-1,poldrack-single-stim,511,904311,0.0-510.0,b5c68b66-bccf-4182-8da5-8c7faf27b943,,500,500,fixation,,<div class = centerbox><div class = fixation>+</div></div>,none,500,test,,,,,,,,,,,785,66,poldrack-categorize,512,906822,0.0-511.0,b5c68b66-bccf-4182-8da5-8c7faf27b943,,1500,250,stim,,"<div class = centerbox><div class = stroop-stim style = ""color:blue"">RED</div></div>","66,71,82",1500,test,,,incongruent,TRUE,66,,,500,blue,red,-1,-1,poldrack-single-stim,513,907582,0.0-512.0,b5c68b66-bccf-4182-8da5-8c7faf27b943,,500,500,fixation,,<div class = centerbox><div class = fixation>+</div></div>,none,500,test,,,,,,,,,,,494,66,poldrack-categorize,514,910096,0.0-513.0,b5c68b66-bccf-4182-8da5-8c7faf27b943,,1500,250,stim,,"<div class = centerbox><div class = stroop-stim style = ""color:blue"">BLUE</div></div>","66,71,82",1500,test,,,congruent,TRUE,66,,,500,blue,blue,-1,-1,poldrack-single-stim,515,910856,0.0-514.0,b5c68b66-bccf-4182-8da5-8c7faf27b943,,500,500,fixation,,<div class = centerbox><div class = fixation>+</div></div>,none,500,test,,,,,,,,,,,621,71,poldrack-categorize,516,913369,0.0-515.0,b5c68b66-bccf-4182-8da5-8c7faf27b943,,1500,250,stim,,"<div class = centerbox><div class = stroop-stim style = ""color:green"">GREEN</div></div>","66,71,82",1500,test,,,congruent,TRUE,71,,,500,green,green,-1,-1,poldrack-single-stim,517,914130,0.0-516.0,b5c68b66-bccf-4182-8da5-8c7faf27b943,,500,500,fixation,,<div class = centerbox><div class = fixation>+</div></div>,none,500,test,,,,,,,,,,,548,66,poldrack-categorize,518,916643,0.0-517.0,b5c68b66-bccf-4182-8da5-8c7faf27b943,,1500,250,stim,,"<div class = centerbox><div class = stroop-stim style = ""color:blue"">BLUE</div></div>","66,71,82",1500,test,,,congruent,TRUE,66,,,500,blue,blue,-1,-1,poldrack-single-stim,519,917404,0.0-518.0,b5c68b66-bccf-4182-8da5-8c7faf27b943,,500,500,fixation,,<div class = centerbox><div class = fixation>+</div></div>,none,500,test,,,,,,,,,,,937,71,poldrack-categorize,520,919917,0.0-519.0,b5c68b66-bccf-4182-8da5-8c7faf27b943,,1500,250,stim,,"<div class = centerbox><div class = stroop-stim style = ""color:green"">RED</div></div>","66,71,82",1500,test,,,incongruent,TRUE,71,,,500,green,red,-1,-1,poldrack-single-stim,521,920678,0.0-520.0,b5c68b66-bccf-4182-8da5-8c7faf27b943,,500,500,fixation,,<div class = centerbox><div class = fixation>+</div></div>,none,500,test,,,,,,,,,,,689,82,poldrack-categorize,522,923191,0.0-521.0,b5c68b66-bccf-4182-8da5-8c7faf27b943,,1500,250,stim,,"<div class = centerbox><div class = stroop-stim style = ""color:red"">RED</div></div>","66,71,82",1500,test,,,congruent,TRUE,82,,,500,red,red,-1,-1,poldrack-single-stim,523,923951,0.0-522.0,b5c68b66-bccf-4182-8da5-8c7faf27b943,,500,500,fixation,,<div class = centerbox><div class = fixation>+</div></div>,none,500,test,,,,,,,,,,,407,66,poldrack-categorize,524,926465,0.0-523.0,b5c68b66-bccf-4182-8da5-8c7faf27b943,,1500,250,stim,,"<div class = centerbox><div class = stroop-stim style = ""color:blue"">BLUE</div></div>","66,71,82",1500,test,,,congruent,TRUE,66,,,500,blue,blue,-1,-1,poldrack-single-stim,525,927225,0.0-524.0,b5c68b66-bccf-4182-8da5-8c7faf27b943,,500,500,fixation,,<div class = centerbox><div class = fixation>+</div></div>,none,500,test,,,,,,,,,,,765,71,poldrack-categorize,526,929735,0.0-525.0,b5c68b66-bccf-4182-8da5-8c7faf27b943,,1500,250,stim,,"<div class = centerbox><div class = stroop-stim style = ""color:green"">RED</div></div>","66,71,82",1500,test,,,incongruent,TRUE,71,,,500,green,red,-1,-1,poldrack-single-stim,527,930493,0.0-526.0,b5c68b66-bccf-4182-8da5-8c7faf27b943,,500,500,fixation,,<div class = centerbox><div class = fixation>+</div></div>,none,500,test,,,,,,,,,,,878,71,poldrack-categorize,528,933006,0.0-527.0,b5c68b66-bccf-4182-8da5-8c7faf27b943,,1500,250,stim,,"<div class = centerbox><div class = stroop-stim style = ""color:green"">BLUE</div></div>","66,71,82",1500,test,,,incongruent,TRUE,71,,,500,green,blue,-1,-1,poldrack-single-stim,529,933767,0.0-528.0,b5c68b66-bccf-4182-8da5-8c7faf27b943,,500,500,fixation,,<div class = centerbox><div class = fixation>+</div></div>,none,500,test,,,,,,,,,,,549,82,poldrack-categorize,530,936280,0.0-529.0,b5c68b66-bccf-4182-8da5-8c7faf27b943,,1500,250,stim,,"<div class = centerbox><div class = stroop-stim style = ""color:red"">RED</div></div>","66,71,82",1500,test,,,congruent,TRUE,82,,,500,red,red,-1,-1,poldrack-single-stim,531,937041,0.0-530.0,b5c68b66-bccf-4182-8da5-8c7faf27b943,,500,500,fixation,,<div class = centerbox><div class = fixation>+</div></div>,none,500,test,,,,,,,,,,,723,66,poldrack-categorize,532,939554,0.0-531.0,b5c68b66-bccf-4182-8da5-8c7faf27b943,,1500,250,stim,,"<div class = centerbox><div class = stroop-stim style = ""color:blue"">RED</div></div>","66,71,82",1500,test,,,incongruent,TRUE,66,,,500,blue,red,-1,-1,poldrack-single-stim,533,940314,0.0-532.0,b5c68b66-bccf-4182-8da5-8c7faf27b943,,500,500,fixation,,<div class = centerbox><div class = fixation>+</div></div>,none,500,test,,,,,,,,,,,499,66,poldrack-categorize,534,942828,0.0-533.0,b5c68b66-bccf-4182-8da5-8c7faf27b943,,1500,250,stim,,"<div class = centerbox><div class = stroop-stim style = ""color:blue"">BLUE</div></div>","66,71,82",1500,test,,,congruent,TRUE,66,,,500,blue,blue,-1,-1,poldrack-single-stim,535,943588,0.0-534.0,b5c68b66-bccf-4182-8da5-8c7faf27b943,,500,500,fixation,,<div class = centerbox><div class = fixation>+</div></div>,none,500,test,,,,,,,,,,,767,82,poldrack-categorize,536,946098,0.0-535.0,b5c68b66-bccf-4182-8da5-8c7faf27b943,,1500,250,stim,,"<div class = centerbox><div class = stroop-stim style = ""color:red"">GREEN</div></div>","66,71,82",1500,test,,,incongruent,TRUE,82,,,500,red,green,-1,-1,poldrack-single-stim,537,946856,0.0-536.0,b5c68b66-bccf-4182-8da5-8c7faf27b943,,500,500,fixation,,<div class = centerbox><div class = fixation>+</div></div>,none,500,test,,,,,,,,,,,514,82,poldrack-categorize,538,949370,0.0-537.0,b5c68b66-bccf-4182-8da5-8c7faf27b943,,1500,250,stim,,"<div class = centerbox><div class = stroop-stim style = ""color:red"">RED</div></div>","66,71,82",1500,test,,,congruent,TRUE,82,,,500,red,red,-1,-1,poldrack-single-stim,539,950127,0.0-538.0,b5c68b66-bccf-4182-8da5-8c7faf27b943,,500,500,fixation,,<div class = centerbox><div class = fixation>+</div></div>,none,500,test,,,,,,,,,,,406,66,poldrack-categorize,540,952638,0.0-539.0,b5c68b66-bccf-4182-8da5-8c7faf27b943,,1500,250,stim,,"<div class = centerbox><div class = stroop-stim style = ""color:blue"">BLUE</div></div>","66,71,82",1500,test,,,congruent,TRUE,66,,,500,blue,blue,-1,-1,poldrack-single-stim,541,953398,0.0-540.0,b5c68b66-bccf-4182-8da5-8c7faf27b943,,500,500,fixation,,<div class = centerbox><div class = fixation>+</div></div>,none,500,test,,,,,,,,,,,461,66,poldrack-categorize,542,955912,0.0-541.0,b5c68b66-bccf-4182-8da5-8c7faf27b943,,1500,250,stim,,"<div class = centerbox><div class = stroop-stim style = ""color:blue"">BLUE</div></div>","66,71,82",1500,test,,,congruent,TRUE,66,,,500,blue,blue,-1,-1,poldrack-single-stim,543,956672,0.0-542.0,b5c68b66-bccf-4182-8da5-8c7faf27b943,,500,500,fixation,,<div class = centerbox><div class = fixation>+</div></div>,none,500,test,,,,,,,,,,,819,82,poldrack-categorize,544,959185,0.0-543.0,b5c68b66-bccf-4182-8da5-8c7faf27b943,,1500,250,stim,,"<div class = centerbox><div class = stroop-stim style = ""color:red"">BLUE</div></div>","66,71,82",1500,test,,,incongruent,TRUE,82,,,500,red,blue,-1,-1,poldrack-single-stim,545,959941,0.0-544.0,b5c68b66-bccf-4182-8da5-8c7faf27b943,,500,500,fixation,,<div class = centerbox><div class = fixation>+</div></div>,none,500,test,,,,,,,,,,,614,71,poldrack-categorize,546,962453,0.0-545.0,b5c68b66-bccf-4182-8da5-8c7faf27b943,,1500,250,stim,,"<div class = centerbox><div class = stroop-stim style = ""color:green"">GREEN</div></div>","66,71,82",1500,test,,,congruent,TRUE,71,,,500,green,green,-1,-1,poldrack-single-stim,547,963214,0.0-546.0,b5c68b66-bccf-4182-8da5-8c7faf27b943,,500,500,fixation,,<div class = centerbox><div class = fixation>+</div></div>,none,500,test,,,,,,,,,,,589,82,poldrack-categorize,548,965727,0.0-547.0,b5c68b66-bccf-4182-8da5-8c7faf27b943,,1500,250,stim,,"<div class = centerbox><div class = stroop-stim style = ""color:red"">RED</div></div>","66,71,82",1500,test,,,congruent,TRUE,82,,,500,red,red,-1,-1,poldrack-single-stim,549,966487,0.0-548.0,b5c68b66-bccf-4182-8da5-8c7faf27b943,,500,500,fixation,,<div class = centerbox><div class = fixation>+</div></div>,none,500,test,,,,,,,,,,,445,66,poldrack-categorize,550,968995,0.0-549.0,b5c68b66-bccf-4182-8da5-8c7faf27b943,,1500,250,stim,,"<div class = centerbox><div class = stroop-stim style = ""color:blue"">RED</div></div>","66,71,82",1500,test,,,incongruent,TRUE,66,,,500,blue,red,-1,-1,poldrack-single-stim,551,969756,0.0-550.0,b5c68b66-bccf-4182-8da5-8c7faf27b943,,500,500,fixation,,<div class = centerbox><div class = fixation>+</div></div>,none,500,test,,,,,,,,,,,654,66,poldrack-categorize,552,972263,0.0-551.0,b5c68b66-bccf-4182-8da5-8c7faf27b943,,1500,250,stim,,"<div class = centerbox><div class = stroop-stim style = ""color:blue"">GREEN</div></div>","66,71,82",1500,test,,,incongruent,TRUE,66,,,500,blue,green,-1,-1,poldrack-single-stim,553,973024,0.0-552.0,b5c68b66-bccf-4182-8da5-8c7faf27b943,,500,500,fixation,,<div class = centerbox><div class = fixation>+</div></div>,none,500,test,,,,,,,,,,,561,82,poldrack-categorize,554,975537,0.0-553.0,b5c68b66-bccf-4182-8da5-8c7faf27b943,,1500,250,stim,,"<div class = centerbox><div class = stroop-stim style = ""color:red"">RED</div></div>","66,71,82",1500,test,,,congruent,TRUE,82,,,500,red,red,-1,-1,poldrack-single-stim,555,976298,0.0-554.0,b5c68b66-bccf-4182-8da5-8c7faf27b943,,500,500,fixation,,<div class = centerbox><div class = fixation>+</div></div>,none,500,test,,,,,,,,,,,842,71,poldrack-categorize,556,978805,0.0-555.0,b5c68b66-bccf-4182-8da5-8c7faf27b943,,1500,250,stim,,"<div class = centerbox><div class = stroop-stim style = ""color:green"">RED</div></div>","66,71,82",1500,test,,,incongruent,TRUE,71,,,500,green,red,-1,-1,poldrack-single-stim,557,979565,0.0-556.0,b5c68b66-bccf-4182-8da5-8c7faf27b943,,500,500,fixation,,<div class = centerbox><div class = fixation>+</div></div>,none,500,test,,,,,,,,,,,643,71,poldrack-categorize,558,982077,0.0-557.0,b5c68b66-bccf-4182-8da5-8c7faf27b943,,1500,250,stim,,"<div class = centerbox><div class = stroop-stim style = ""color:green"">GREEN</div></div>","66,71,82",1500,test,,,congruent,TRUE,71,,,500,green,green,-1,-1,poldrack-single-stim,559,982833,0.0-558.0,b5c68b66-bccf-4182-8da5-8c7faf27b943,,500,500,fixation,,<div class = centerbox><div class = fixation>+</div></div>,none,500,test,,,,,,,,,,,479,71,poldrack-categorize,560,985347,0.0-559.0,b5c68b66-bccf-4182-8da5-8c7faf27b943,,1500,250,stim,,"<div class = centerbox><div class = stroop-stim style = ""color:green"">GREEN</div></div>","66,71,82",1500,test,,,congruent,TRUE,71,,,500,green,green,-1,-1,poldrack-single-stim,561,986103,0.0-560.0,b5c68b66-bccf-4182-8da5-8c7faf27b943,,500,500,fixation,,<div class = centerbox><div class = fixation>+</div></div>,none,500,test,,,,,,,,,,,601,66,poldrack-categorize,562,988615,0.0-561.0,b5c68b66-bccf-4182-8da5-8c7faf27b943,,1500,250,stim,,"<div class = centerbox><div class = stroop-stim style = ""color:blue"">BLUE</div></div>","66,71,82",1500,test,,,congruent,TRUE,66,,,500,blue,blue,-1,-1,poldrack-single-stim,563,989375,0.0-562.0,b5c68b66-bccf-4182-8da5-8c7faf27b943,,500,500,fixation,,<div class = centerbox><div class = fixation>+</div></div>,none,500,test,,,,,,,,,,,595,82,poldrack-categorize,564,991888,0.0-563.0,b5c68b66-bccf-4182-8da5-8c7faf27b943,,1500,250,stim,,"<div class = centerbox><div class = stroop-stim style = ""color:red"">RED</div></div>","66,71,82",1500,test,,,congruent,TRUE,82,,,500,red,red,-1,-1,poldrack-single-stim,565,992649,0.0-564.0,b5c68b66-bccf-4182-8da5-8c7faf27b943,,500,500,fixation,,<div class = centerbox><div class = fixation>+</div></div>,none,500,test,,,,,,,,,,,712,66,poldrack-categorize,566,995162,0.0-565.0,b5c68b66-bccf-4182-8da5-8c7faf27b943,,1500,250,stim,,"<div class = centerbox><div class = stroop-stim style = ""color:red"">BLUE</div></div>","66,71,82",1500,test,,,incongruent,FALSE,82,,,500,red,blue,-1,-1,poldrack-single-stim,567,995923,0.0-566.0,b5c68b66-bccf-4182-8da5-8c7faf27b943,,500,500,fixation,,<div class = centerbox><div class = fixation>+</div></div>,none,500,test,,,,,,,,,,,636,71,poldrack-categorize,568,998436,0.0-567.0,b5c68b66-bccf-4182-8da5-8c7faf27b943,,1500,250,stim,,"<div class = centerbox><div class = stroop-stim style = ""color:green"">GREEN</div></div>","66,71,82",1500,test,,,congruent,TRUE,71,,,500,green,green,-1,-1,poldrack-single-stim,569,999193,0.0-568.0,b5c68b66-bccf-4182-8da5-8c7faf27b943,,500,500,fixation,,<div class = centerbox><div class = fixation>+</div></div>,none,500,test,,,,,,,,,,,896,82,poldrack-categorize,570,1001700,0.0-569.0,b5c68b66-bccf-4182-8da5-8c7faf27b943,,1500,250,stim,,"<div class = centerbox><div class = stroop-stim style = ""color:red"">GREEN</div></div>","66,71,82",1500,test,,,incongruent,TRUE,82,,,500,red,green,-1,-1,poldrack-single-stim,571,1002459,0.0-570.0,b5c68b66-bccf-4182-8da5-8c7faf27b943,,500,500,fixation,,<div class = centerbox><div class = fixation>+</div></div>,none,500,test,,,,,,,,,,,916,71,poldrack-categorize,572,1004972,0.0-571.0,b5c68b66-bccf-4182-8da5-8c7faf27b943,,1500,250,stim,,"<div class = centerbox><div class = stroop-stim style = ""color:green"">RED</div></div>","66,71,82",1500,test,,,incongruent,TRUE,71,,,500,green,red,-1,-1,poldrack-single-stim,573,1005733,0.0-572.0,b5c68b66-bccf-4182-8da5-8c7faf27b943,,500,500,fixation,,<div class = centerbox><div class = fixation>+</div></div>,none,500,test,,,,,,,,,,,665,66,poldrack-categorize,574,1008246,0.0-573.0,b5c68b66-bccf-4182-8da5-8c7faf27b943,,1500,250,stim,,"<div class = centerbox><div class = stroop-stim style = ""color:blue"">RED</div></div>","66,71,82",1500,test,,,incongruent,TRUE,66,,,500,blue,red,-1,-1,poldrack-single-stim,575,1009006,0.0-574.0,b5c68b66-bccf-4182-8da5-8c7faf27b943,,500,500,fixation,,<div class = centerbox><div class = fixation>+</div></div>,none,500,test,,,,,,,,,,,721,82,poldrack-categorize,576,1011516,0.0-575.0,b5c68b66-bccf-4182-8da5-8c7faf27b943,,1500,250,stim,,"<div class = centerbox><div class = stroop-stim style = ""color:red"">BLUE</div></div>","66,71,82",1500,test,,,incongruent,TRUE,82,,,500,red,blue,-1,-1,poldrack-single-stim,577,1012270,0.0-576.0,b5c68b66-bccf-4182-8da5-8c7faf27b943,,500,500,fixation,,<div class = centerbox><div class = fixation>+</div></div>,none,500,test,,,,,,,,,,,600,71,poldrack-categorize,578,1014782,0.0-577.0,b5c68b66-bccf-4182-8da5-8c7faf27b943,,1500,250,stim,,"<div class = centerbox><div class = stroop-stim style = ""color:green"">RED</div></div>","66,71,82",1500,test,,,incongruent,TRUE,71,,,500,green,red,-1,-1,poldrack-single-stim,579,1015537,0.0-578.0,b5c68b66-bccf-4182-8da5-8c7faf27b943,,500,500,fixation,,<div class = centerbox><div class = fixation>+</div></div>,none,500,test,,,,,,,,,,,1006,82,poldrack-categorize,580,1018044,0.0-579.0,b5c68b66-bccf-4182-8da5-8c7faf27b943,,1500,250,stim,,"<div class = centerbox><div class = stroop-stim style = ""color:red"">GREEN</div></div>","66,71,82",1500,test,,,incongruent,TRUE,82,,,500,red,green,-1,-1,poldrack-single-stim,581,1018805,0.0-580.0,b5c68b66-bccf-4182-8da5-8c7faf27b943,,500,500,fixation,,<div class = centerbox><div class = fixation>+</div></div>,none,500,test,,,,,,,,,,,720,66,poldrack-categorize,582,1021318,0.0-581.0,b5c68b66-bccf-4182-8da5-8c7faf27b943,,1500,250,stim,,"<div class = centerbox><div class = stroop-stim style = ""color:blue"">GREEN</div></div>","66,71,82",1500,test,,,incongruent,TRUE,66,,,500,blue,green,-1,-1,poldrack-single-stim,583,1022075,0.0-582.0,b5c68b66-bccf-4182-8da5-8c7faf27b943,,500,500,fixation,,<div class = centerbox><div class = fixation>+</div></div>,none,500,test,,,,,,,,,,,666,71,poldrack-categorize,584,1024586,0.0-583.0,b5c68b66-bccf-4182-8da5-8c7faf27b943,,1500,250,stim,,"<div class = centerbox><div class = stroop-stim style = ""color:green"">GREEN</div></div>","66,71,82",1500,test,,,congruent,TRUE,71,,,500,green,green,-1,-1,poldrack-single-stim,585,1025346,0.0-584.0,b5c68b66-bccf-4182-8da5-8c7faf27b943,,500,500,fixation,,<div class = centerbox><div class = fixation>+</div></div>,none,500,test,,,,,,,,,,,851,71,poldrack-categorize,586,1027860,0.0-585.0,b5c68b66-bccf-4182-8da5-8c7faf27b943,,1500,250,stim,,"<div class = centerbox><div class = stroop-stim style = ""color:green"">GREEN</div></div>","66,71,82",1500,test,,,congruent,TRUE,71,,,500,green,green,-1,-1,poldrack-single-stim,587,1028620,0.0-586.0,b5c68b66-bccf-4182-8da5-8c7faf27b943,,500,500,fixation,,<div class = centerbox><div class = fixation>+</div></div>,none,500,test,,,,,,,,,,,587,71,poldrack-categorize,588,1031128,0.0-587.0,b5c68b66-bccf-4182-8da5-8c7faf27b943,,1500,250,stim,,"<div class = centerbox><div class = stroop-stim style = ""color:green"">GREEN</div></div>","66,71,82",1500,test,,,congruent,TRUE,71,,,500,green,green,-1,-1,poldrack-single-stim,589,1031888,0.0-588.0,b5c68b66-bccf-4182-8da5-8c7faf27b943,,500,500,fixation,,<div class = centerbox><div class = fixation>+</div></div>,none,500,test,,,,,,,,,,,845,82,poldrack-categorize,590,1034402,0.0-589.0,b5c68b66-bccf-4182-8da5-8c7faf27b943,,1500,250,stim,,"<div class = centerbox><div class = stroop-stim style = ""color:red"">BLUE</div></div>","66,71,82",1500,test,,,incongruent,TRUE,82,,,500,red,blue,-1,-1,poldrack-single-stim,591,1035162,0.0-590.0,b5c68b66-bccf-4182-8da5-8c7faf27b943,,500,500,fixation,,<div class = centerbox><div class = fixation>+</div></div>,none,500,test,,,,,,,,,,,652,66,poldrack-categorize,592,1037669,0.0-591.0,b5c68b66-bccf-4182-8da5-8c7faf27b943,,1500,250,stim,,"<div class = centerbox><div class = stroop-stim style = ""color:blue"">RED</div></div>","66,71,82",1500,test,,,incongruent,TRUE,66,,,500,blue,red,-1,-1,poldrack-single-stim,593,1038430,0.0-592.0,b5c68b66-bccf-4182-8da5-8c7faf27b943,,500,500,fixation,,<div class = centerbox><div class = fixation>+</div></div>,none,500,test,,,,,,,,,,,471,71,poldrack-categorize,594,1040943,0.0-593.0,b5c68b66-bccf-4182-8da5-8c7faf27b943,,1500,250,stim,,"<div class = centerbox><div class = stroop-stim style = ""color:green"">GREEN</div></div>","66,71,82",1500,test,,,congruent,TRUE,71,,,500,green,green,-1,-1,poldrack-single-stim,595,1041704,0.0-594.0,b5c68b66-bccf-4182-8da5-8c7faf27b943,,500,500,fixation,,<div class = centerbox><div class = fixation>+</div></div>,none,500,test,,,,,,,,,,,861,66,poldrack-categorize,596,1044217,0.0-595.0,b5c68b66-bccf-4182-8da5-8c7faf27b943,,1500,250,stim,,"<div class = centerbox><div class = stroop-stim style = ""color:blue"">RED</div></div>","66,71,82",1500,test,,,incongruent,TRUE,66,,,500,blue,red,-1,-1,poldrack-single-stim,597,1044978,0.0-596.0,b5c68b66-bccf-4182-8da5-8c7faf27b943,,500,500,fixation,,<div class = centerbox><div class = fixation>+</div></div>,none,500,test,,,,,,,,,,,532,71,poldrack-categorize,598,1047485,0.0-597.0,b5c68b66-bccf-4182-8da5-8c7faf27b943,,1500,250,stim,,"<div class = centerbox><div class = stroop-stim style = ""color:green"">GREEN</div></div>","66,71,82",1500,test,,,congruent,TRUE,71,,,500,green,green,-1,-1,poldrack-single-stim,599,1048246,0.0-598.0,b5c68b66-bccf-4182-8da5-8c7faf27b943,,500,500,fixation,,<div class = centerbox><div class = fixation>+</div></div>,none,500,test,,,,,,,,,,,583,66,poldrack-categorize,600,1050759,0.0-599.0,b5c68b66-bccf-4182-8da5-8c7faf27b943,,1500,250,stim,,"<div class = centerbox><div class = stroop-stim style = ""color:blue"">BLUE</div></div>","66,71,82",1500,test,,,congruent,TRUE,66,,,500,blue,blue,-1,-1,poldrack-single-stim,601,1051516,0.0-600.0,b5c68b66-bccf-4182-8da5-8c7faf27b943,,500,500,fixation,,<div class = centerbox><div class = fixation>+</div></div>,none,500,test,,,,,,,,,,,586,66,poldrack-categorize,602,1054027,0.0-601.0,b5c68b66-bccf-4182-8da5-8c7faf27b943,,1500,250,stim,,"<div class = centerbox><div class = stroop-stim style = ""color:blue"">BLUE</div></div>","66,71,82",1500,test,,,congruent,TRUE,66,,,500,blue,blue,-1,-1,poldrack-single-stim,603,1054788,0.0-602.0,b5c68b66-bccf-4182-8da5-8c7faf27b943,,500,500,fixation,,<div class = centerbox><div class = fixation>+</div></div>,none,500,test,,,,,,,,,,,657,82,poldrack-categorize,604,1057301,0.0-603.0,b5c68b66-bccf-4182-8da5-8c7faf27b943,,1500,250,stim,,"<div class = centerbox><div class = stroop-stim style = ""color:red"">GREEN</div></div>","66,71,82",1500,test,,,incongruent,TRUE,82,,,500,red,green,-1,-1,poldrack-single-stim,605,1058061,0.0-604.0,b5c68b66-bccf-4182-8da5-8c7faf27b943,,500,500,fixation,,<div class = centerbox><div class = fixation>+</div></div>,none,500,test,,,,,,,,,,,736,71,poldrack-categorize,606,1060568,0.0-605.0,b5c68b66-bccf-4182-8da5-8c7faf27b943,,1500,250,stim,,"<div class = centerbox><div class = stroop-stim style = ""color:green"">RED</div></div>","66,71,82",1500,test,,,incongruent,TRUE,71,,,500,green,red,-1,-1,poldrack-single-stim,607,1061324,0.0-606.0,b5c68b66-bccf-4182-8da5-8c7faf27b943,,500,500,fixation,,<div class = centerbox><div class = fixation>+</div></div>,none,500,test,,,,,,,,,,,592,66,poldrack-categorize,608,1063835,0.0-607.0,b5c68b66-bccf-4182-8da5-8c7faf27b943,,1500,250,stim,,"<div class = centerbox><div class = stroop-stim style = ""color:blue"">GREEN</div></div>","66,71,82",1500,test,,,incongruent,TRUE,66,,,500,blue,green,-1,-1,poldrack-single-stim,609,1064592,0.0-608.0,b5c68b66-bccf-4182-8da5-8c7faf27b943,,500,500,fixation,,<div class = centerbox><div class = fixation>+</div></div>,none,500,test,,,,,,,,,,,460,66,poldrack-categorize,610,1067105,0.0-609.0,b5c68b66-bccf-4182-8da5-8c7faf27b943,,1500,250,stim,,"<div class = centerbox><div class = stroop-stim style = ""color:blue"">BLUE</div></div>","66,71,82",1500,test,,,congruent,TRUE,66,,,500,blue,blue,-1,-1,poldrack-single-stim,611,1067859,0.0-610.0,b5c68b66-bccf-4182-8da5-8c7faf27b943,,500,500,fixation,,<div class = centerbox><div class = fixation>+</div></div>,none,500,test,,,,,,,,,,,663,66,poldrack-categorize,612,1070370,0.0-611.0,b5c68b66-bccf-4182-8da5-8c7faf27b943,,1500,250,stim,,"<div class = centerbox><div class = stroop-stim style = ""color:blue"">GREEN</div></div>","66,71,82",1500,test,,,incongruent,TRUE,66,,,500,blue,green,-1,-1,poldrack-single-stim,613,1071128,0.0-612.0,b5c68b66-bccf-4182-8da5-8c7faf27b943,,500,500,fixation,,<div class = centerbox><div class = fixation>+</div></div>,none,500,test,,,,,,,,,,,907,71,poldrack-categorize,614,1073641,0.0-613.0,b5c68b66-bccf-4182-8da5-8c7faf27b943,,1500,250,stim,,"<div class = centerbox><div class = stroop-stim style = ""color:green"">BLUE</div></div>","66,71,82",1500,test,,,incongruent,TRUE,71,,,500,green,blue,-1,-1,poldrack-single-stim,615,1074401,0.0-614.0,b5c68b66-bccf-4182-8da5-8c7faf27b943,,500,500,fixation,,<div class = centerbox><div class = fixation>+</div></div>,none,500,test,,,,,,,,,,,778,71,poldrack-categorize,616,1076915,0.0-615.0,b5c68b66-bccf-4182-8da5-8c7faf27b943,,1500,250,stim,,"<div class = centerbox><div class = stroop-stim style = ""color:green"">BLUE</div></div>","66,71,82",1500,test,,,incongruent,TRUE,71,,,500,green,blue,-1,-1,poldrack-single-stim,617,1077675,0.0-616.0,b5c68b66-bccf-4182-8da5-8c7faf27b943,,500,500,fixation,,<div class = centerbox><div class = fixation>+</div></div>,none,500,test,,,,,,,,,,,577,82,poldrack-categorize,618,1080188,0.0-617.0,b5c68b66-bccf-4182-8da5-8c7faf27b943,,1500,250,stim,,"<div class = centerbox><div class = stroop-stim style = ""color:red"">RED</div></div>","66,71,82",1500,test,,,congruent,TRUE,82,,,500,red,red,-1,-1,poldrack-single-stim,619,1080949,0.0-618.0,b5c68b66-bccf-4182-8da5-8c7faf27b943,,500,500,fixation,,<div class = centerbox><div class = fixation>+</div></div>,none,500,test,,,,,,,,,,,719,66,poldrack-categorize,620,1083462,0.0-619.0,b5c68b66-bccf-4182-8da5-8c7faf27b943,,1500,250,stim,,"<div class = centerbox><div class = stroop-stim style = ""color:blue"">GREEN</div></div>","66,71,82",1500,test,,,incongruent,TRUE,66,,,500,blue,green,-1,-1,poldrack-single-stim,621,1084223,0.0-620.0,b5c68b66-bccf-4182-8da5-8c7faf27b943,,500,500,fixation,,<div class = centerbox><div class = fixation>+</div></div>,none,500,test,,,,,,,,,,,605,71,poldrack-categorize,622,1086736,0.0-621.0,b5c68b66-bccf-4182-8da5-8c7faf27b943,,1500,250,stim,,"<div class = centerbox><div class = stroop-stim style = ""color:green"">BLUE</div></div>","66,71,82",1500,test,,,incongruent,TRUE,71,,,500,green,blue,-1,-1,poldrack-single-stim,623,1087497,0.0-622.0,b5c68b66-bccf-4182-8da5-8c7faf27b943,,500,500,fixation,,<div class = centerbox><div class = fixation>+</div></div>,none,500,test,,,,,,,,,,,593,71,poldrack-categorize,624,1090010,0.0-623.0,b5c68b66-bccf-4182-8da5-8c7faf27b943,,1500,250,stim,,"<div class = centerbox><div class = stroop-stim style = ""color:green"">GREEN</div></div>","66,71,82",1500,test,,,congruent,TRUE,71,,,500,green,green,-1,-1,poldrack-single-stim,625,1090769,0.0-624.0,b5c68b66-bccf-4182-8da5-8c7faf27b943,,500,500,fixation,,<div class = centerbox><div class = fixation>+</div></div>,none,500,test,,,,,,,,,,,713,71,poldrack-categorize,626,1093284,0.0-625.0,b5c68b66-bccf-4182-8da5-8c7faf27b943,,1500,250,stim,,"<div class = centerbox><div class = stroop-stim style = ""color:green"">BLUE</div></div>","66,71,82",1500,test,,,incongruent,TRUE,71,,,500,green,blue,-1,-1,poldrack-single-stim,627,1094044,0.0-626.0,b5c68b66-bccf-4182-8da5-8c7faf27b943,,500,500,fixation,,<div class = centerbox><div class = fixation>+</div></div>,none,500,test,,,,,,,,,,,935,66,poldrack-categorize,628,1096557,0.0-627.0,b5c68b66-bccf-4182-8da5-8c7faf27b943,,1500,250,stim,,"<div class = centerbox><div class = stroop-stim style = ""color:blue"">RED</div></div>","66,71,82",1500,test,,,incongruent,TRUE,66,,,500,blue,red,-1,-1,poldrack-single-stim,629,1097318,0.0-628.0,b5c68b66-bccf-4182-8da5-8c7faf27b943,,500,500,fixation,,<div class = centerbox><div class = fixation>+</div></div>,none,500,test,,,,,,,,,,,797,71,poldrack-categorize,630,1099831,0.0-629.0,b5c68b66-bccf-4182-8da5-8c7faf27b943,,1500,250,stim,,"<div class = centerbox><div class = stroop-stim style = ""color:green"">BLUE</div></div>","66,71,82",1500,test,,,incongruent,TRUE,71,,,500,green,blue,-1,-1,poldrack-single-stim,631,1100593,0.0-630.0,b5c68b66-bccf-4182-8da5-8c7faf27b943,,500,500,fixation,,<div class = centerbox><div class = fixation>+</div></div>,none,500,test,,,,,,,,,,,593,82,poldrack-categorize,632,1103105,0.0-631.0,b5c68b66-bccf-4182-8da5-8c7faf27b943,,1500,250,stim,,"<div class = centerbox><div class = stroop-stim style = ""color:red"">RED</div></div>","66,71,82",1500,test,,,congruent,TRUE,82,,,500,red,red,62592,,survey-text,633,1165954,0.0-633.0,b5c68b66-bccf-4182-8da5-8c7faf27b943,,,,post task questions,,,,,,,,,,,"{""Q0"":""Identify what color of ink each word was, pressing \""r\"" for red, \""g\"" for green, and \""b\"" for blue."",""Q1"":""N/A""}",,,,,1182,13,poldrack-text,634,1168141,0.0-634.0,b5c68b66-bccf-4182-8da5-8c7faf27b943,<div class = centerbox><p class = center-block-text>Thanks for completing this task!</p><p class = center-block-text>Press <strong>enter</strong> to continue.</p></div>,1182,0,end,,,,,,,,,,,,stroop,,,,TRUE34086,13,text,635,1202268,0.0-635.0,b5c68b66-bccf-4182-8da5-8c7faf27b943,,,,,,,,,,,,,,,,,,,,