sub	session	blocknum	trial	letterset	load	letter	resp	acc	RT	stim
10	1	1	1	Y	L	r	0	Miss	0	S
10	1	1	2	Y	L	m	0	Miss	0	S
10	1	1	3	Y	L	y	0	Miss	0	S
10	1	1	4	Y	L	r	0	Miss	0	S
10	1	1	5	Y	L	j	0	Miss	0	S
10	1	1	6	Y	L	y	1	Correct	752	S
10	1	1	7	Y	L	a	2	Correct	620	S
10	1	1	8	Y	L	y	1	Correct	481	S
10	1	1	9	Y	L	y	1	Correct	477	S
10	1	1	10	Y	L	h	2	Correct	586	S
10	1	1	11	Y	L	m	2	Correct	559	S
10	1	1	12	Y	L	y	1	Correct	803	S
10	1	1	13	Y	L	b	2	Correct	448	S
10	1	1	14	Y	L	y	1	Correct	508	S
10	1	1	15	Y	L	k	2	Correct	640	S
10	1	1	16	Y	L	r	2	Correct	644	S
10	1	1	17	Y	L	k	2	Correct	489	S
10	1	1	18	Y	L	w	2	Correct	558	S
10	1	1	19	Y	L	e	2	Correct	482	S
10	1	1	20	Y	L	y	1	Correct	551	S
10	1	1	21	Y	L	y	1	Correct	476	S
10	1	1	22	Y	L	y	1	Correct	480	S
10	1	1	23	Y	L	a	2	Correct	604	S
10	1	1	24	Y	L	t	2	Correct	457	S
10	1	1	25	Y	L	y	1	Correct	590	S
10	1	2	1	J	L	n	2	Correct	552	S
10	1	2	2	J	L	j	1	Correct	604	S
10	1	2	3	J	L	m	2	Correct	729	S
10	1	2	4	J	L	j	1	Correct	429	S
10	1	2	5	J	L	j	1	Correct	418	S
10	1	2	6	J	L	j	1	Correct	382	S
10	1	2	7	J	L	f	2	Correct	578	S
10	1	2	8	J	L	j	1	Correct	606	S
10	1	2	9	J	L	y	2	Correct	563	S
10	1	2	10	J	L	j	1	Correct	431	S
10	1	2	11	J	L	j	1	Correct	548	S
10	1	2	12	J	L	j	1	Correct	425	S
10	1	2	13	J	L	y	2	Correct	445	S
10	1	2	14	J	L	j	1	Correct	442	S
10	1	2	15	J	L	j	1	Correct	366	S
10	1	2	16	J	L	f	2	Correct	490	S
10	1	2	17	J	L	j	1	Correct	399	S
10	1	2	18	J	L	j	1	Correct	491	S
10	1	2	19	J	L	w	2	Correct	479	S
10	1	2	20	J	L	j	1	Correct	468	S
10	1	2	21	J	L	j	1	Correct	360	S
10	1	2	22	J	L	k	2	Correct	405	S
10	1	2	23	J	L	j	1	Correct	418	S
10	1	2	24	J	L	u	2	Correct	438	S
10	1	2	25	J	L	j	1	Correct	435	S
10	1	3	1	J  H  B  F  E	H	h	0	Miss	0	S
10	1	3	2	J  H  B  F  E	H	b	0	Miss	0	S
10	1	3	3	J  H  B  F  E	H	a	2	Incorrect	607	S
10	1	3	4	J  H  B  F  E	H	r	2	Incorrect	827	S
10	1	3	5	J  H  B  F  E	H	q	2	Incorrect	503	S
10	1	3	6	J  H  B  F  E	H	t	2	Incorrect	764	S
10	1	3	7	J  H  B  F  E	H	e	1	Correct	881	S
10	1	3	8	J  H  B  F  E	H	b	1	Correct	725	S
10	1	3	9	J  H  B  F  E	H	h	1	Correct	625	S
10	1	3	10	J  H  B  F  E	H	h	1	Correct	462	S
10	1	3	11	J  H  B  F  E	H	u	2	Incorrect	539	S
10	1	3	12	J  H  B  F  E	H	q	2	Incorrect	735	S
10	1	3	13	J  H  B  F  E	H	g	2	Incorrect	564	S
10	1	3	14	J  H  B  F  E	H	t	2	Incorrect	585	S
10	1	3	15	J  H  B  F  E	H	f	1	Correct	525	S
10	1	3	16	J  H  B  F  E	H	n	2	Incorrect	577	S
10	1	3	17	J  H  B  F  E	H	a	2	Incorrect	582	S
10	1	3	18	J  H  B  F  E	H	q	2	Incorrect	658	S
10	1	3	19	J  H  B  F  E	H	h	1	Correct	390	S
10	1	3	20	J  H  B  F  E	H	w	2	Incorrect	499	S
10	1	3	21	J  H  B  F  E	H	f	1	Correct	504	S
10	1	3	22	J  H  B  F  E	H	w	2	Incorrect	516	S
10	1	3	23	J  H  B  F  E	H	e	1	Correct	369	S
10	1	3	24	J  H  B  F  E	H	h	1	Correct	534	S
10	1	3	25	J  H  B  F  E	H	w	2	Incorrect	482	S
10	1	4	1	R  Y  T  F  M	H	w	2	Incorrect	542	S
10	1	4	2	R  Y  T  F  M	H	m	2	Incorrect	514	S
10	1	4	3	R  Y  T  F  M	H	t	1	Correct	759	S
10	1	4	4	R  Y  T  F  M	H	k	2	Incorrect	604	S
10	1	4	5	R  Y  T  F  M	H	u	2	Incorrect	632	S
10	1	4	6	R  Y  T  F  M	H	d	2	Incorrect	564	S
10	1	4	7	R  Y  T  F  M	H	a	2	Incorrect	737	S
10	1	4	8	R  Y  T  F  M	H	y	1	Correct	869	S
10	1	4	9	R  Y  T  F  M	H	k	2	Incorrect	577	S
10	1	4	10	R  Y  T  F  M	H	d	1	Correct	909	S
10	1	4	11	R  Y  T  F  M	H	j	2	Incorrect	729	S
10	1	4	12	R  Y  T  F  M	H	k	2	Incorrect	830	S
10	1	4	13	R  Y  T  F  M	H	a	2	Incorrect	579	S
10	1	4	14	R  Y  T  F  M	H	e	1	Correct	671	S
10	1	4	15	R  Y  T  F  M	H	u	2	Incorrect	572	S
10	1	4	16	R  Y  T  F  M	H	u	0	Miss	0	S
10	1	4	17	R  Y  T  F  M	H	r	1	Correct	556	S
10	1	4	18	R  Y  T  F  M	H	e	2	Incorrect	633	S
10	1	4	19	R  Y  T  F  M	H	h	2	Incorrect	998	S
10	1	4	20	R  Y  T  F  M	H	r	1	Correct	530	S
10	1	4	21	R  Y  T  F  M	H	u	2	Incorrect	551	S
10	1	4	22	R  Y  T  F  M	H	d	2	Incorrect	563	S
10	1	4	23	R  Y  T  F  M	H	q	2	Incorrect	584	S
10	1	4	24	R  Y  T  F  M	H	q	2	Incorrect	556	S
10	1	4	25	R  Y  T  F  M	H	u	2	Incorrect	657	S
10	1	5	1	H  G  W	M	h	1	Correct	500	S
10	1	5	2	H  G  W	M	u	2	Correct	496	S
10	1	5	3	H  G  W	M	w	2	Incorrect	661	S
10	1	5	4	H  G  W	M	r	2	Correct	745	S
10	1	5	5	H  G  W	M	n	2	Correct	517	S
10	1	5	6	H  G  W	M	f	2	Correct	569	S
10	1	5	7	H  G  W	M	q	2	Correct	438	S
10	1	5	8	H  G  W	M	y	2	Correct	410	S
10	1	5	9	H  G  W	M	w	1	Correct	423	S
10	1	5	10	H  G  W	M	e	2	Correct	531	S
10	1	5	11	H  G  W	M	a	2	Correct	439	S
10	1	5	12	H  G  W	M	w	1	Correct	564	S
10	1	5	13	H  G  W	M	w	1	Correct	464	S
10	1	5	14	H  G  W	M	w	1	Correct	437	S
10	1	5	15	H  G  W	M	y	2	Correct	802	S
10	1	5	16	H  G  W	M	r	2	Correct	822	S
10	1	5	17	H  G  W	M	e	2	Correct	434	S
10	1	5	18	H  G  W	M	h	1	Correct	519	S
10	1	5	19	H  G  W	M	h	1	Correct	515	S
10	1	5	20	H  G  W	M	d	2	Correct	536	S
10	1	5	21	H  G  W	M	u	2	Correct	452	S
10	1	5	22	H  G  W	M	w	1	Correct	673	S
10	1	5	23	H  G  W	M	k	2	Correct	918	S
10	1	5	24	H  G  W	M	g	2	Incorrect	458	S
10	1	5	25	H  G  W	M	j	2	Correct	887	S
10	1	6	1	G  F  H	M	q	2	Correct	546	S
10	1	6	2	G  F  H	M	g	1	Correct	519	S
10	1	6	3	G  F  H	M	f	1	Correct	468	S
10	1	6	4	G  F  H	M	g	1	Correct	448	S
10	1	6	5	G  F  H	M	u	2	Correct	453	S
10	1	6	6	G  F  H	M	f	1	Correct	394	S
10	1	6	7	G  F  H	M	m	2	Correct	478	S
10	1	6	8	G  F  H	M	g	1	Correct	395	S
10	1	6	9	G  F  H	M	e	2	Correct	487	S
10	1	6	10	G  F  H	M	f	1	Correct	444	S
10	1	6	11	G  F  H	M	n	2	Correct	520	S
10	1	6	12	G  F  H	M	h	1	Correct	397	S
10	1	6	13	G  F  H	M	g	1	Correct	641	S
10	1	6	14	G  F  H	M	g	1	Correct	389	S
10	1	6	15	G  F  H	M	m	2	Correct	505	S
10	1	6	16	G  F  H	M	y	2	Correct	750	S
10	1	6	17	G  F  H	M	f	1	Correct	675	S
10	1	6	18	G  F  H	M	a	2	Correct	518	S
10	1	6	19	G  F  H	M	j	2	Correct	555	S
10	1	6	20	G  F  H	M	y	2	Correct	472	S
10	1	6	21	G  F  H	M	j	2	Correct	532	S
10	1	6	22	G  F  H	M	q	2	Correct	560	S
10	1	6	23	G  F  H	M	b	2	Correct	548	S
10	1	6	24	G  F  H	M	h	1	Correct	825	S
10	1	6	25	G  F  H	M	e	2	Correct	446	S
10	2	1	1	G  W  U  M  K	H	f	0	Miss	0	A
10	2	1	2	G  W  U  M  K	H	w	1	Correct	652	A
10	2	1	3	G  W  U  M  K	H	w	1	Correct	480	A
10	2	1	4	G  W  U  M  K	H	h	2	Incorrect	781	A
10	2	1	5	G  W  U  M  K	H	y	2	Incorrect	713	A
10	2	1	6	G  W  U  M  K	H	w	1	Correct	606	A
10	2	1	7	G  W  U  M  K	H	w	1	Correct	450	A
10	2	1	8	G  W  U  M  K	H	w	1	Correct	375	A
10	2	1	9	G  W  U  M  K	H	u	2	Incorrect	515	A
10	2	1	10	G  W  U  M  K	H	t	2	Incorrect	751	A
10	2	1	11	G  W  U  M  K	H	b	2	Incorrect	796	A
10	2	1	12	G  W  U  M  K	H	k	1	Correct	489	A
10	2	1	13	G  W  U  M  K	H	r	2	Incorrect	661	A
10	2	1	14	G  W  U  M  K	H	j	1	Correct	714	A
10	2	1	15	G  W  U  M  K	H	w	1	Correct	782	A
10	2	1	16	G  W  U  M  K	H	f	0	Miss	0	A
10	2	1	17	G  W  U  M  K	H	t	2	Incorrect	607	A
10	2	1	18	G  W  U  M  K	H	f	1	Correct	580	A
10	2	1	19	G  W  U  M  K	H	k	1	Correct	608	A
10	2	1	20	G  W  U  M  K	H	k	1	Correct	453	A
10	2	1	21	G  W  U  M  K	H	q	2	Incorrect	498	A
10	2	1	22	G  W  U  M  K	H	f	1	Correct	590	A
10	2	1	23	G  W  U  M  K	H	w	1	Correct	683	A
10	2	1	24	G  W  U  M  K	H	q	2	Incorrect	584	A
10	2	1	25	G  W  U  M  K	H	b	2	Incorrect	476	A
10	2	2	1	M	L	m	1	Correct	480	A
10	2	2	2	M	L	m	1	Correct	436	A
10	2	2	3	M	L	m	1	Correct	384	A
10	2	2	4	M	L	m	1	Correct	365	A
10	2	2	5	M	L	j	2	Correct	433	A
10	2	2	6	M	L	j	2	Correct	382	A
10	2	2	7	M	L	b	2	Correct	426	A
10	2	2	8	M	L	r	2	Correct	399	A
10	2	2	9	M	L	k	2	Correct	467	A
10	2	2	10	M	L	r	2	Correct	399	A
10	2	2	11	M	L	k	2	Correct	403	A
10	2	2	12	M	L	j	2	Correct	360	A
10	2	2	13	M	L	t	2	Correct	357	A
10	2	2	14	M	L	m	1	Correct	433	A
10	2	2	15	M	L	j	2	Correct	438	A
10	2	2	16	M	L	m	1	Correct	410	A
10	2	2	17	M	L	r	2	Correct	535	A
10	2	2	18	M	L	f	2	Correct	396	A
10	2	2	19	M	L	m	1	Correct	520	A
10	2	2	20	M	L	m	1	Correct	325	A
10	2	2	21	M	L	b	2	Correct	386	A
10	2	2	22	M	L	e	2	Correct	398	A
10	2	2	23	M	L	r	2	Correct	379	A
10	2	2	24	M	L	m	1	Correct	376	A
10	2	2	25	M	L	m	1	Correct	284	A
10	2	3	1	M  A  N	M	b	2	Correct	670	A
10	2	3	2	M  A  N	M	a	1	Correct	699	A
10	2	3	3	M  A  N	M	n	1	Correct	607	A
10	2	3	4	M  A  N	M	y	2	Correct	572	A
10	2	3	5	M  A  N	M	y	2	Correct	440	A
10	2	3	6	M  A  N	M	u	2	Correct	461	A
10	2	3	7	M  A  N	M	q	2	Correct	417	A
10	2	3	8	M  A  N	M	n	1	Correct	454	A
10	2	3	9	M  A  N	M	y	2	Correct	563	A
10	2	3	10	M  A  N	M	d	2	Correct	647	A
10	2	3	11	M  A  N	M	e	2	Correct	452	A
10	2	3	12	M  A  N	M	k	2	Correct	473	A
10	2	3	13	M  A  N	M	a	1	Correct	525	A
10	2	3	14	M  A  N	M	y	2	Correct	458	A
10	2	3	15	M  A  N	M	m	1	Correct	415	A
10	2	3	16	M  A  N	M	a	1	Correct	475	A
10	2	3	17	M  A  N	M	r	2	Correct	439	A
10	2	3	18	M  A  N	M	m	1	Correct	484	A
10	2	3	19	M  A  N	M	j	2	Correct	480	A
10	2	3	20	M  A  N	M	d	2	Correct	404	A
10	2	3	21	M  A  N	M	m	1	Correct	385	A
10	2	3	22	M  A  N	M	h	2	Correct	526	A
10	2	3	23	M  A  N	M	n	1	Correct	410	A
10	2	3	24	M  A  N	M	b	2	Correct	519	A
10	2	3	25	M  A  N	M	t	2	Correct	436	A
10	2	4	1	F  G  W  B  U	H	g	0	Miss	0	A
10	2	4	2	F  G  W  B  U	H	u	1	Correct	691	A
10	2	4	3	F  G  W  B  U	H	w	1	Correct	528	A
10	2	4	4	F  G  W  B  U	H	e	2	Incorrect	620	A
10	2	4	5	F  G  W  B  U	H	b	2	Incorrect	633	A
10	2	4	6	F  G  W  B  U	H	m	0	Miss	0	A
10	2	4	7	F  G  W  B  U	H	w	2	Incorrect	626	A
10	2	4	8	F  G  W  B  U	H	e	2	Incorrect	695	A
10	2	4	9	F  G  W  B  U	H	b	1	Correct	555	A
10	2	4	10	F  G  W  B  U	H	y	1	Correct	776	A
10	2	4	11	F  G  W  B  U	H	k	2	Incorrect	597	A
10	2	4	12	F  G  W  B  U	H	b	1	Correct	625	A
10	2	4	13	F  G  W  B  U	H	y	2	Incorrect	822	A
10	2	4	14	F  G  W  B  U	H	w	1	Correct	667	A
10	2	4	15	F  G  W  B  U	H	t	2	Incorrect	791	A
10	2	4	16	F  G  W  B  U	H	n	2	Incorrect	564	A
10	2	4	17	F  G  W  B  U	H	g	1	Correct	544	A
10	2	4	18	F  G  W  B  U	H	w	1	Correct	508	A
10	2	4	19	F  G  W  B  U	H	n	2	Incorrect	848	A
10	2	4	20	F  G  W  B  U	H	n	2	Incorrect	516	A
10	2	4	21	F  G  W  B  U	H	m	2	Incorrect	680	A
10	2	4	22	F  G  W  B  U	H	n	2	Incorrect	413	A
10	2	4	23	F  G  W  B  U	H	j	2	Incorrect	714	A
10	2	4	24	F  G  W  B  U	H	h	2	Incorrect	534	A
10	2	4	25	F  G  W  B  U	H	g	1	Correct	531	A
10	2	5	1	M  H  T	M	e	2	Correct	534	A
10	2	5	2	M  H  T	M	y	2	Correct	602	A
10	2	5	3	M  H  T	M	u	2	Correct	495	A
10	2	5	4	M  H  T	M	e	2	Correct	387	A
10	2	5	5	M  H  T	M	b	2	Correct	440	A
10	2	5	6	M  H  T	M	w	2	Correct	436	A
10	2	5	7	M  H  T	M	a	2	Correct	409	A
10	2	5	8	M  H  T	M	m	1	Correct	477	A
10	2	5	9	M  H  T	M	b	2	Correct	705	A
10	2	5	10	M  H  T	M	t	1	Correct	349	A
10	2	5	11	M  H  T	M	w	2	Correct	505	A
10	2	5	12	M  H  T	M	t	1	Correct	614	A
10	2	5	13	M  H  T	M	m	1	Correct	419	A
10	2	5	14	M  H  T	M	y	2	Correct	511	A
10	2	5	15	M  H  T	M	w	2	Correct	483	A
10	2	5	16	M  H  T	M	a	2	Correct	439	A
10	2	5	17	M  H  T	M	f	2	Correct	460	A
10	2	5	18	M  H  T	M	k	2	Correct	432	A
10	2	5	19	M  H  T	M	f	2	Correct	636	A
10	2	5	20	M  H  T	M	h	1	Correct	457	A
10	2	5	21	M  H  T	M	h	1	Correct	462	A
10	2	5	22	M  H  T	M	a	2	Correct	450	A
10	2	5	23	M  H  T	M	m	1	Correct	455	A
10	2	5	24	M  H  T	M	y	2	Correct	428	A
10	2	5	25	M  H  T	M	d	2	Correct	760	A
10	2	6	1	Q	L	h	2	Correct	497	A
10	2	6	2	Q	L	q	1	Correct	502	A
10	2	6	3	Q	L	q	1	Correct	418	A
10	2	6	4	Q	L	q	1	Correct	407	A
10	2	6	5	Q	L	e	2	Correct	659	A
10	2	6	6	Q	L	q	1	Correct	535	A
10	2	6	7	Q	L	d	2	Correct	564	A
10	2	6	8	Q	L	b	2	Correct	433	A
10	2	6	9	Q	L	q	1	Correct	493	A
10	2	6	10	Q	L	a	2	Correct	505	A
10	2	6	11	Q	L	q	1	Correct	445	A
10	2	6	12	Q	L	q	1	Correct	370	A
10	2	6	13	Q	L	t	2	Correct	415	A
10	2	6	14	Q	L	a	2	Correct	419	A
10	2	6	15	Q	L	q	1	Correct	471	A
10	2	6	16	Q	L	n	2	Correct	460	A
10	2	6	17	Q	L	q	1	Correct	328	A
10	2	6	18	Q	L	q	1	Correct	364	A
10	2	6	19	Q	L	f	2	Correct	424	A
10	2	6	20	Q	L	g	1	Incorrect	476	A
10	2	6	21	Q	L	r	2	Correct	553	A
10	2	6	22	Q	L	q	1	Correct	694	A
10	2	6	23	Q	L	q	1	Correct	426	A
10	2	6	24	Q	L	k	2	Correct	431	A
10	2	6	25	Q	L	e	2	Correct	444	A
11	1	1	1	U	L	w	0	Miss	0	A
11	1	1	2	U	L	d	0	Miss	0	A
11	1	1	3	U	L	u	0	Miss	0	A
11	1	1	4	U	L	u	0	Miss	0	A
11	1	1	5	U	L	u	0	Miss	0	A
11	1	1	6	U	L	u	2	Incorrect	303	A
11	1	1	7	U	L	d	2	Correct	532	A
11	1	1	8	U	L	f	0	Miss	0	A
11	1	1	9	U	L	y	2	Correct	581	A
11	1	1	10	U	L	j	2	Correct	434	A
11	1	1	11	U	L	b	2	Correct	975	A
11	1	1	12	U	L	u	0	Miss	0	A
11	1	1	13	U	L	h	2	Correct	848	A
11	1	1	14	U	L	r	2	Correct	757	A
11	1	1	15	U	L	r	0	Miss	0	A
11	1	1	16	U	L	u	2	Incorrect	894	A
11	1	1	17	U	L	h	0	Miss	0	A
11	1	1	18	U	L	m	2	Correct	503	A
11	1	1	19	U	L	u	0	Miss	0	A
11	1	1	20	U	L	u	1	Correct	463	A
11	1	1	21	U	L	t	2	Correct	635	A
11	1	1	22	U	L	n	0	Miss	0	A
11	1	1	23	U	L	u	1	Correct	732	A
11	1	1	24	U	L	u	1	Correct	544	A
11	1	1	25	U	L	w	0	Miss	0	A
11	1	2	1	J  K  M  W  D	H	a	2	Incorrect	703	A
11	1	2	2	J  K  M  W  D	H	d	1	Correct	716	A
11	1	2	3	J  K  M  W  D	H	n	2	Incorrect	848	A
11	1	2	4	J  K  M  W  D	H	k	1	Correct	733	A
11	1	2	5	J  K  M  W  D	H	h	2	Incorrect	578	A
11	1	2	6	J  K  M  W  D	H	t	2	Incorrect	574	A
11	1	2	7	J  K  M  W  D	H	n	1	Correct	674	A
11	1	2	8	J  K  M  W  D	H	r	2	Incorrect	695	A
11	1	2	9	J  K  M  W  D	H	t	2	Incorrect	651	A
11	1	2	10	J  K  M  W  D	H	m	1	Correct	535	A
11	1	2	11	J  K  M  W  D	H	d	2	Incorrect	508	A
11	1	2	12	J  K  M  W  D	H	a	2	Incorrect	889	A
11	1	2	13	J  K  M  W  D	H	e	2	Incorrect	653	A
11	1	2	14	J  K  M  W  D	H	d	1	Correct	626	A
11	1	2	15	J  K  M  W  D	H	t	2	Incorrect	599	A
11	1	2	16	J  K  M  W  D	H	w	0	Miss	0	A
11	1	2	17	J  K  M  W  D	H	m	1	Correct	752	A
11	1	2	18	J  K  M  W  D	H	u	2	Incorrect	740	A
11	1	2	19	J  K  M  W  D	H	w	1	Correct	640	A
11	1	2	20	J  K  M  W  D	H	e	2	Incorrect	661	A
11	1	2	21	J  K  M  W  D	H	m	1	Correct	529	A
11	1	2	22	J  K  M  W  D	H	n	2	Incorrect	670	A
11	1	2	23	J  K  M  W  D	H	d	1	Correct	426	A
11	1	2	24	J  K  M  W  D	H	g	2	Incorrect	879	A
11	1	2	25	J  K  M  W  D	H	k	1	Correct	732	A
11	1	3	1	E  A  W  N  K	H	n	0	Miss	0	A
11	1	3	2	E  A  W  N  K	H	h	2	Incorrect	556	A
11	1	3	3	E  A  W  N  K	H	u	2	Incorrect	760	A
11	1	3	4	E  A  W  N  K	H	y	2	Incorrect	557	A
11	1	3	5	E  A  W  N  K	H	a	1	Correct	394	A
11	1	3	6	E  A  W  N  K	H	k	1	Correct	774	A
11	1	3	7	E  A  W  N  K	H	f	2	Incorrect	515	A
11	1	3	8	E  A  W  N  K	H	u	2	Incorrect	775	A
11	1	3	9	E  A  W  N  K	H	u	2	Incorrect	588	A
11	1	3	10	E  A  W  N  K	H	q	2	Incorrect	553	A
11	1	3	11	E  A  W  N  K	H	g	2	Incorrect	701	A
11	1	3	12	E  A  W  N  K	H	n	1	Correct	642	A
11	1	3	13	E  A  W  N  K	H	g	2	Incorrect	486	A
11	1	3	14	E  A  W  N  K	H	w	1	Correct	755	A
11	1	3	15	E  A  W  N  K	H	n	1	Correct	695	A
11	1	3	16	E  A  W  N  K	H	y	2	Incorrect	548	A
11	1	3	17	E  A  W  N  K	H	j	2	Incorrect	745	A
11	1	3	18	E  A  W  N  K	H	d	2	Incorrect	741	A
11	1	3	19	E  A  W  N  K	H	m	1	Correct	562	A
11	1	3	20	E  A  W  N  K	H	q	2	Incorrect	542	A
11	1	3	21	E  A  W  N  K	H	e	2	Incorrect	674	A
11	1	3	22	E  A  W  N  K	H	m	2	Incorrect	775	A
11	1	3	23	E  A  W  N  K	H	q	2	Incorrect	836	A
11	1	3	24	E  A  W  N  K	H	n	1	Correct	600	A
11	1	3	25	E  A  W  N  K	H	g	2	Incorrect	501	A
11	1	4	1	Y	L	g	2	Correct	528	A
11	1	4	2	Y	L	q	2	Correct	397	A
11	1	4	3	Y	L	g	2	Correct	354	A
11	1	4	4	Y	L	y	1	Correct	486	A
11	1	4	5	Y	L	k	2	Correct	547	A
11	1	4	6	Y	L	n	2	Correct	544	A
11	1	4	7	Y	L	y	1	Correct	412	A
11	1	4	8	Y	L	y	1	Correct	424	A
11	1	4	9	Y	L	y	1	Correct	397	A
11	1	4	10	Y	L	t	2	Correct	418	A
11	1	4	11	Y	L	y	1	Correct	398	A
11	1	4	12	Y	L	n	2	Correct	459	A
11	1	4	13	Y	L	y	1	Correct	631	A
11	1	4	14	Y	L	u	2	Correct	627	A
11	1	4	15	Y	L	m	2	Correct	696	A
11	1	4	16	Y	L	w	2	Correct	517	A
11	1	4	17	Y	L	n	2	Correct	409	A
11	1	4	18	Y	L	y	1	Correct	406	A
11	1	4	19	Y	L	y	1	Correct	522	A
11	1	4	20	Y	L	y	1	Correct	503	A
11	1	4	21	Y	L	e	1	Incorrect	307	A
11	1	4	22	Y	L	y	1	Correct	528	A
11	1	4	23	Y	L	y	1	Correct	396	A
11	1	4	24	Y	L	y	1	Correct	609	A
11	1	4	25	Y	L	n	2	Correct	550	A
11	1	5	1	N  R  A	M	e	2	Correct	737	A
11	1	5	2	N  R  A	M	n	1	Correct	477	A
11	1	5	3	N  R  A	M	u	2	Correct	554	A
11	1	5	4	N  R  A	M	r	1	Correct	606	A
11	1	5	5	N  R  A	M	u	2	Correct	475	A
11	1	5	6	N  R  A	M	q	2	Correct	504	A
11	1	5	7	N  R  A	M	k	2	Correct	452	A
11	1	5	8	N  R  A	M	q	2	Correct	449	A
11	1	5	9	N  R  A	M	n	1	Correct	454	A
11	1	5	10	N  R  A	M	h	2	Correct	354	A
11	1	5	11	N  R  A	M	a	1	Correct	527	A
11	1	5	12	N  R  A	M	t	2	Correct	564	A
11	1	5	13	N  R  A	M	e	2	Correct	648	A
11	1	5	14	N  R  A	M	f	2	Correct	461	A
11	1	5	15	N  R  A	M	n	1	Correct	513	A
11	1	5	16	N  R  A	M	g	2	Correct	437	A
11	1	5	17	N  R  A	M	e	2	Correct	730	A
11	1	5	18	N  R  A	M	r	2	Incorrect	398	A
11	1	5	19	N  R  A	M	d	2	Correct	611	A
11	1	5	20	N  R  A	M	a	1	Correct	623	A
11	1	5	21	N  R  A	M	n	1	Correct	628	A
11	1	5	22	N  R  A	M	h	2	Correct	433	A
11	1	5	23	N  R  A	M	b	2	Correct	485	A
11	1	5	24	N  R  A	M	y	2	Correct	514	A
11	1	5	25	N  R  A	M	a	1	Correct	511	A
11	1	6	1	G  F  H	M	j	2	Correct	873	A
11	1	6	2	G  F  H	M	h	2	Incorrect	501	A
11	1	6	3	G  F  H	M	m	2	Correct	586	A
11	1	6	4	G  F  H	M	y	2	Correct	518	A
11	1	6	5	G  F  H	M	j	2	Correct	547	A
11	1	6	6	G  F  H	M	r	2	Correct	496	A
11	1	6	7	G  F  H	M	q	2	Correct	524	A
11	1	6	8	G  F  H	M	h	1	Correct	625	A
11	1	6	9	G  F  H	M	f	1	Correct	709	A
11	1	6	10	G  F  H	M	u	2	Correct	570	A
11	1	6	11	G  F  H	M	e	2	Correct	886	A
11	1	6	12	G  F  H	M	y	2	Correct	538	A
11	1	6	13	G  F  H	M	u	2	Correct	543	A
11	1	6	14	G  F  H	M	f	1	Correct	716	A
11	1	6	15	G  F  H	M	q	2	Correct	632	A
11	1	6	16	G  F  H	M	g	1	Correct	580	A
11	1	6	17	G  F  H	M	r	2	Correct	537	A
11	1	6	18	G  F  H	M	g	1	Correct	453	A
11	1	6	19	G  F  H	M	k	2	Correct	746	A
11	1	6	20	G  F  H	M	t	2	Correct	687	A
11	1	6	21	G  F  H	M	h	2	Incorrect	643	A
11	1	6	22	G  F  H	M	k	2	Correct	544	A
11	1	6	23	G  F  H	M	w	2	Correct	701	A
11	1	6	24	G  F  H	M	e	2	Correct	665	A
11	1	6	25	G  F  H	M	q	2	Correct	901	A
11	2	1	1	F  K  J	M	k	1	Correct	823	S
11	2	1	2	F  K  J	M	q	2	Correct	739	S
11	2	1	3	F  K  J	M	y	2	Correct	647	S
11	2	1	4	F  K  J	M	q	2	Correct	651	S
11	2	1	5	F  K  J	M	t	2	Correct	472	S
11	2	1	6	F  K  J	M	g	2	Correct	652	S
11	2	1	7	F  K  J	M	g	2	Correct	625	S
11	2	1	8	F  K  J	M	y	2	Correct	477	S
11	2	1	9	F  K  J	M	y	2	Correct	394	S
11	2	1	10	F  K  J	M	n	2	Correct	502	S
11	2	1	11	F  K  J	M	j	1	Correct	635	S
11	2	1	12	F  K  J	M	f	1	Correct	792	S
11	2	1	13	F  K  J	M	e	2	Correct	500	S
11	2	1	14	F  K  J	M	u	2	Correct	473	S
11	2	1	15	F  K  J	M	h	2	Correct	566	S
11	2	1	16	F  K  J	M	w	2	Correct	610	S
11	2	1	17	F  K  J	M	w	2	Correct	519	S
11	2	1	18	F  K  J	M	j	1	Correct	611	S
11	2	1	19	F  K  J	M	g	2	Correct	632	S
11	2	1	20	F  K  J	M	f	1	Correct	853	S
11	2	1	21	F  K  J	M	a	2	Correct	585	S
11	2	1	22	F  K  J	M	n	2	Correct	566	S
11	2	1	23	F  K  J	M	r	2	Correct	603	S
11	2	1	24	F  K  J	M	n	2	Correct	551	S
11	2	1	25	F  K  J	M	j	1	Correct	612	S
11	2	2	1	B  U  Q	M	b	1	Correct	575	S
11	2	2	2	B  U  Q	M	q	1	Correct	755	S
11	2	2	3	B  U  Q	M	d	2	Correct	567	S
11	2	2	4	B  U  Q	M	b	1	Correct	619	S
11	2	2	5	B  U  Q	M	u	1	Correct	480	S
11	2	2	6	B  U  Q	M	f	2	Correct	572	S
11	2	2	7	B  U  Q	M	q	1	Correct	673	S
11	2	2	8	B  U  Q	M	f	2	Correct	774	S
11	2	2	9	B  U  Q	M	q	1	Correct	682	S
11	2	2	10	B  U  Q	M	d	2	Correct	646	S
11	2	2	11	B  U  Q	M	a	2	Correct	883	S
11	2	2	12	B  U  Q	M	j	2	Correct	544	S
11	2	2	13	B  U  Q	M	b	1	Correct	508	S
11	2	2	14	B  U  Q	M	j	2	Correct	617	S
11	2	2	15	B  U  Q	M	r	2	Correct	614	S
11	2	2	16	B  U  Q	M	q	1	Correct	738	S
11	2	2	17	B  U  Q	M	w	2	Correct	463	S
11	2	2	18	B  U  Q	M	e	2	Correct	524	S
11	2	2	19	B  U  Q	M	q	1	Correct	584	S
11	2	2	20	B  U  Q	M	b	1	Correct	812	S
11	2	2	21	B  U  Q	M	n	2	Correct	480	S
11	2	2	22	B  U  Q	M	u	1	Correct	493	S
11	2	2	23	B  U  Q	M	b	1	Correct	569	S
11	2	2	24	B  U  Q	M	k	2	Correct	518	S
11	2	2	25	B  U  Q	M	b	1	Correct	603	S
11	2	3	1	R  U  J  Q  A	H	r	1	Correct	414	S
11	2	3	2	R  U  J  Q  A	H	q	1	Correct	650	S
11	2	3	3	R  U  J  Q  A	H	m	2	Incorrect	583	S
11	2	3	4	R  U  J  Q  A	H	a	1	Correct	731	S
11	2	3	5	R  U  J  Q  A	H	a	1	Correct	496	S
11	2	3	6	R  U  J  Q  A	H	m	2	Incorrect	621	S
11	2	3	7	R  U  J  Q  A	H	f	2	Incorrect	641	S
11	2	3	8	R  U  J  Q  A	H	b	2	Incorrect	637	S
11	2	3	9	R  U  J  Q  A	H	n	2	Incorrect	786	S
11	2	3	10	R  U  J  Q  A	H	e	2	Incorrect	838	S
11	2	3	11	R  U  J  Q  A	H	y	2	Incorrect	642	S
11	2	3	12	R  U  J  Q  A	H	w	2	Incorrect	551	S
11	2	3	13	R  U  J  Q  A	H	a	1	Correct	524	S
11	2	3	14	R  U  J  Q  A	H	a	2	Incorrect	512	S
11	2	3	15	R  U  J  Q  A	H	q	1	Correct	805	S
11	2	3	16	R  U  J  Q  A	H	h	2	Incorrect	538	S
11	2	3	17	R  U  J  Q  A	H	j	1	Correct	790	S
11	2	3	18	R  U  J  Q  A	H	h	2	Incorrect	730	S
11	2	3	19	R  U  J  Q  A	H	b	2	Incorrect	767	S
11	2	3	20	R  U  J  Q  A	H	e	2	Incorrect	995	S
11	2	3	21	R  U  J  Q  A	H	b	2	Incorrect	824	S
11	2	3	22	R  U  J  Q  A	H	y	2	Incorrect	764	S
11	2	3	23	R  U  J  Q  A	H	r	0	Miss	0	S
11	2	3	24	R  U  J  Q  A	H	g	2	Incorrect	573	S
11	2	3	25	R  U  J  Q  A	H	h	2	Incorrect	770	S
11	2	4	1	N	L	g	2	Correct	653	S
11	2	4	2	N	L	a	2	Correct	441	S
11	2	4	3	N	L	g	2	Correct	389	S
11	2	4	4	N	L	n	2	Incorrect	489	S
11	2	4	5	N	L	n	1	Correct	502	S
11	2	4	6	N	L	r	2	Correct	619	S
11	2	4	7	N	L	r	1	Incorrect	615	S
11	2	4	8	N	L	u	2	Correct	532	S
11	2	4	9	N	L	n	1	Correct	528	S
11	2	4	10	N	L	r	2	Correct	572	S
11	2	4	11	N	L	a	2	Correct	576	S
11	2	4	12	N	L	g	2	Correct	429	S
11	2	4	13	N	L	q	2	Correct	658	S
11	2	4	14	N	L	n	1	Correct	590	S
11	2	4	15	N	L	a	2	Correct	763	S
11	2	4	16	N	L	e	2	Correct	728	S
11	2	4	17	N	L	u	2	Correct	628	S
11	2	4	18	N	L	j	2	Correct	608	S
11	2	4	19	N	L	n	1	Correct	532	S
11	2	4	20	N	L	n	1	Correct	417	S
11	2	4	21	N	L	e	2	Correct	901	S
11	2	4	22	N	L	k	2	Correct	697	S
11	2	4	23	N	L	b	2	Correct	630	S
11	2	4	24	N	L	e	2	Correct	723	S
11	2	4	25	N	L	b	2	Correct	559	S
11	2	5	1	Q  H  M  R  D	H	u	0	Miss	0	S
11	2	5	2	Q  H  M  R  D	H	h	1	Correct	711	S
11	2	5	3	Q  H  M  R  D	H	b	2	Incorrect	820	S
11	2	5	4	Q  H  M  R  D	H	d	1	Correct	712	S
11	2	5	5	Q  H  M  R  D	H	r	1	Correct	629	S
11	2	5	6	Q  H  M  R  D	H	m	0	Miss	0	S
11	2	5	7	Q  H  M  R  D	H	u	2	Incorrect	926	S
11	2	5	8	Q  H  M  R  D	H	h	1	Correct	643	S
11	2	5	9	Q  H  M  R  D	H	n	2	Incorrect	751	S
11	2	5	10	Q  H  M  R  D	H	a	2	Incorrect	724	S
11	2	5	11	Q  H  M  R  D	H	n	2	Incorrect	824	S
11	2	5	12	Q  H  M  R  D	H	h	1	Correct	781	S
11	2	5	13	Q  H  M  R  D	H	f	2	Incorrect	858	S
11	2	5	14	Q  H  M  R  D	H	d	1	Correct	894	S
11	2	5	15	Q  H  M  R  D	H	e	0	Miss	0	S
11	2	5	16	Q  H  M  R  D	H	n	2	Incorrect	736	S
11	2	5	17	Q  H  M  R  D	H	n	2	Incorrect	916	S
11	2	5	18	Q  H  M  R  D	H	a	2	Incorrect	625	S
11	2	5	19	Q  H  M  R  D	H	r	1	Correct	534	S
11	2	5	20	Q  H  M  R  D	H	k	2	Incorrect	514	S
11	2	5	21	Q  H  M  R  D	H	w	2	Incorrect	719	S
11	2	5	22	Q  H  M  R  D	H	e	2	Incorrect	915	S
11	2	5	23	Q  H  M  R  D	H	h	1	Correct	816	S
11	2	5	24	Q  H  M  R  D	H	y	2	Incorrect	493	S
11	2	5	25	Q  H  M  R  D	H	m	1	Correct	649	S
11	2	6	1	U	L	b	2	Correct	669	S
11	2	6	2	U	L	u	1	Correct	481	S
11	2	6	3	U	L	y	2	Correct	485	S
11	2	6	4	U	L	u	1	Correct	529	S
11	2	6	5	U	L	u	1	Correct	582	S
11	2	6	6	U	L	u	1	Correct	475	S
11	2	6	7	U	L	j	2	Correct	527	S
11	2	6	8	U	L	f	2	Correct	532	S
11	2	6	9	U	L	u	1	Correct	585	S
11	2	6	10	U	L	u	1	Correct	341	S
11	2	6	11	U	L	b	2	Correct	433	S
11	2	6	12	U	L	u	1	Correct	470	S
11	2	6	13	U	L	u	1	Correct	546	S
11	2	6	14	U	L	g	2	Correct	911	S
11	2	6	15	U	L	w	2	Correct	716	S
11	2	6	16	U	L	n	2	Correct	504	S
11	2	6	17	U	L	u	1	Correct	452	S
11	2	6	18	U	L	r	2	Correct	408	S
11	2	6	19	U	L	u	1	Correct	389	S
11	2	6	20	U	L	j	2	Correct	586	S
11	2	6	21	U	L	y	2	Correct	422	S
11	2	6	22	U	L	t	2	Correct	570	S
11	2	6	23	U	L	r	1	Incorrect	406	S
11	2	6	24	U	L	u	1	Correct	635	S
11	2	6	25	U	L	t	2	Correct	551	S
12	1	1	1	K  E  U  M  Y	H	k	0	Miss	0	S
12	1	1	2	K  E  U  M  Y	H	g	0	Miss	0	S
12	1	1	3	K  E  U  M  Y	H	r	0	Miss	0	S
12	1	1	4	K  E  U  M  Y	H	u	0	Miss	0	S
12	1	1	5	K  E  U  M  Y	H	a	0	Miss	0	S
12	1	1	6	K  E  U  M  Y	H	e	0	Miss	0	S
12	1	1	7	K  E  U  M  Y	H	e	2	Incorrect	440	S
12	1	1	8	K  E  U  M  Y	H	b	2	Incorrect	740	S
12	1	1	9	K  E  U  M  Y	H	e	1	Correct	513	S
12	1	1	10	K  E  U  M  Y	H	r	2	Incorrect	861	S
12	1	1	11	K  E  U  M  Y	H	u	1	Correct	849	S
12	1	1	12	K  E  U  M  Y	H	d	2	Incorrect	918	S
12	1	1	13	K  E  U  M  Y	H	k	1	Correct	491	S
12	1	1	14	K  E  U  M  Y	H	y	0	Miss	0	S
12	1	1	15	K  E  U  M  Y	H	d	0	Miss	0	S
12	1	1	16	K  E  U  M  Y	H	w	1	Correct	720	S
12	1	1	17	K  E  U  M  Y	H	f	1	Correct	644	S
12	1	1	18	K  E  U  M  Y	H	g	1	Correct	912	S
12	1	1	19	K  E  U  M  Y	H	d	0	Miss	0	S
12	1	1	20	K  E  U  M  Y	H	m	1	Correct	761	S
12	1	1	21	K  E  U  M  Y	H	k	1	Correct	606	S
12	1	1	22	K  E  U  M  Y	H	d	0	Miss	0	S
12	1	1	23	K  E  U  M  Y	H	y	1	Correct	743	S
12	1	1	24	K  E  U  M  Y	H	m	1	Correct	739	S
12	1	1	25	K  E  U  M  Y	H	n	0	Miss	0	S
12	1	2	1	B  G  U	M	u	2	Incorrect	690	S
12	1	2	2	B  G  U	M	w	2	Correct	807	S
12	1	2	3	B  G  U	M	g	1	Correct	507	S
12	1	2	4	B  G  U	M	e	2	Correct	639	S
12	1	2	5	B  G  U	M	g	1	Correct	556	S
12	1	2	6	B  G  U	M	r	2	Correct	592	S
12	1	2	7	B  G  U	M	g	1	Correct	669	S
12	1	2	8	B  G  U	M	b	1	Correct	761	S
12	1	2	9	B  G  U	M	q	2	Correct	621	S
12	1	2	10	B  G  U	M	a	1	Incorrect	618	S
12	1	2	11	B  G  U	M	f	0	Miss	0	S
12	1	2	12	B  G  U	M	g	2	Incorrect	659	S
12	1	2	13	B  G  U	M	h	1	Incorrect	672	S
12	1	2	14	B  G  U	M	d	2	Correct	837	S
12	1	2	15	B  G  U	M	q	2	Correct	561	S
12	1	2	16	B  G  U	M	u	1	Correct	558	S
12	1	2	17	B  G  U	M	f	2	Correct	770	S
12	1	2	18	B  G  U	M	m	0	Miss	0	S
12	1	2	19	B  G  U	M	b	1	Correct	619	S
12	1	2	20	B  G  U	M	t	2	Correct	680	S
12	1	2	21	B  G  U	M	a	2	Correct	612	S
12	1	2	22	B  G  U	M	y	0	Miss	0	S
12	1	2	23	B  G  U	M	q	2	Correct	732	S
12	1	2	24	B  G  U	M	f	2	Correct	569	S
12	1	2	25	B  G  U	M	y	2	Correct	614	S
12	1	3	1	G  F  R	M	f	0	Miss	0	S
12	1	3	2	G  F  R	M	a	2	Correct	621	S
12	1	3	3	G  F  R	M	r	1	Correct	762	S
12	1	3	4	G  F  R	M	r	1	Correct	414	S
12	1	3	5	G  F  R	M	q	2	Correct	658	S
12	1	3	6	G  F  R	M	w	2	Correct	591	S
12	1	3	7	G  F  R	M	r	1	Correct	779	S
12	1	3	8	G  F  R	M	n	2	Correct	639	S
12	1	3	9	G  F  R	M	a	2	Correct	508	S
12	1	3	10	G  F  R	M	b	2	Correct	465	S
12	1	3	11	G  F  R	M	a	2	Correct	613	S
12	1	3	12	G  F  R	M	q	2	Correct	594	S
12	1	3	13	G  F  R	M	g	1	Correct	478	S
12	1	3	14	G  F  R	M	b	2	Correct	563	S
12	1	3	15	G  F  R	M	g	1	Correct	654	S
12	1	3	16	G  F  R	M	n	2	Correct	547	S
12	1	3	17	G  F  R	M	g	1	Correct	535	S
12	1	3	18	G  F  R	M	g	1	Correct	388	S
12	1	3	19	G  F  R	M	t	2	Correct	528	S
12	1	3	20	G  F  R	M	f	1	Correct	637	S
12	1	3	21	G  F  R	M	r	1	Correct	738	S
12	1	3	22	G  F  R	M	b	2	Correct	518	S
12	1	3	23	G  F  R	M	w	2	Correct	643	S
12	1	3	24	G  F  R	M	n	2	Correct	536	S
12	1	3	25	G  F  R	M	h	2	Correct	996	S
12	1	4	1	H	L	w	2	Correct	511	S
12	1	4	2	H	L	b	2	Correct	540	S
12	1	4	3	H	L	f	2	Correct	776	S
12	1	4	4	H	L	h	1	Correct	452	S
12	1	4	5	H	L	d	2	Correct	369	S
12	1	4	6	H	L	f	2	Correct	597	S
12	1	4	7	H	L	j	2	Correct	514	S
12	1	4	8	H	L	g	2	Correct	927	S
12	1	4	9	H	L	h	1	Correct	539	S
12	1	4	10	H	L	d	2	Correct	336	S
12	1	4	11	H	L	h	1	Correct	533	S
12	1	4	12	H	L	j	2	Correct	369	S
12	1	4	13	H	L	k	2	Correct	350	S
12	1	4	14	H	L	r	2	Correct	587	S
12	1	4	15	H	L	h	1	Correct	655	S
12	1	4	16	H	L	h	1	Correct	604	S
12	1	4	17	H	L	e	1	Incorrect	649	S
12	1	4	18	H	L	h	1	Correct	581	S
12	1	4	19	H	L	n	2	Correct	514	S
12	1	4	20	H	L	a	2	Correct	598	S
12	1	4	21	H	L	h	2	Incorrect	426	S
12	1	4	22	H	L	h	1	Correct	495	S
12	1	4	23	H	L	r	2	Correct	660	S
12	1	4	24	H	L	e	2	Correct	528	S
12	1	4	25	H	L	h	1	Correct	588	S
12	1	5	1	K	L	u	2	Correct	534	S
12	1	5	2	K	L	r	2	Correct	363	S
12	1	5	3	K	L	u	2	Correct	343	S
12	1	5	4	K	L	h	2	Correct	372	S
12	1	5	5	K	L	r	2	Correct	400	S
12	1	5	6	K	L	q	2	Correct	332	S
12	1	5	7	K	L	j	2	Correct	345	S
12	1	5	8	K	L	k	2	Incorrect	341	S
12	1	5	9	K	L	k	1	Correct	433	S
12	1	5	10	K	L	m	2	Correct	477	S
12	1	5	11	K	L	k	1	Correct	473	S
12	1	5	12	K	L	k	1	Correct	478	S
12	1	5	13	K	L	k	1	Correct	379	S
12	1	5	14	K	L	u	2	Correct	511	S
12	1	5	15	K	L	k	1	Correct	564	S
12	1	5	16	K	L	j	2	Correct	680	S
12	1	5	17	K	L	k	1	Correct	373	S
12	1	5	18	K	L	u	2	Correct	362	S
12	1	5	19	K	L	j	2	Correct	654	S
12	1	5	20	K	L	r	2	Correct	682	S
12	1	5	21	K	L	b	2	Correct	503	S
12	1	5	22	K	L	q	2	Correct	444	S
12	1	5	23	K	L	k	2	Incorrect	328	S
12	1	5	24	K	L	g	2	Correct	388	S
12	1	5	25	K	L	e	2	Correct	425	S
12	1	6	1	N  Q  A  M  W	H	y	2	Incorrect	931	S
12	1	6	2	N  Q  A  M  W	H	n	1	Correct	680	S
12	1	6	3	N  Q  A  M  W	H	e	2	Incorrect	724	S
12	1	6	4	N  Q  A  M  W	H	q	1	Correct	849	S
12	1	6	5	N  Q  A  M  W	H	u	1	Correct	853	S
12	1	6	6	N  Q  A  M  W	H	k	1	Correct	697	S
12	1	6	7	N  Q  A  M  W	H	n	1	Correct	646	S
12	1	6	8	N  Q  A  M  W	H	w	2	Incorrect	451	S
12	1	6	9	N  Q  A  M  W	H	r	2	Incorrect	743	S
12	1	6	10	N  Q  A  M  W	H	t	2	Incorrect	796	S
12	1	6	11	N  Q  A  M  W	H	j	2	Incorrect	769	S
12	1	6	12	N  Q  A  M  W	H	k	1	Correct	469	S
12	1	6	13	N  Q  A  M  W	H	g	2	Incorrect	729	S
12	1	6	14	N  Q  A  M  W	H	d	2	Incorrect	909	S
12	1	6	15	N  Q  A  M  W	H	r	2	Incorrect	674	S
12	1	6	16	N  Q  A  M  W	H	u	1	Correct	454	S
12	1	6	17	N  Q  A  M  W	H	e	0	Miss	0	S
12	1	6	18	N  Q  A  M  W	H	w	1	Correct	752	S
12	1	6	19	N  Q  A  M  W	H	n	1	Correct	628	S
12	1	6	20	N  Q  A  M  W	H	a	1	Correct	497	S
12	1	6	21	N  Q  A  M  W	H	n	1	Correct	606	S
12	1	6	22	N  Q  A  M  W	H	y	2	Incorrect	810	S
12	1	6	23	N  Q  A  M  W	H	q	2	Incorrect	758	S
12	1	6	24	N  Q  A  M  W	H	w	1	Correct	602	S
12	1	6	25	N  Q  A  M  W	H	t	2	Incorrect	783	S
13	2	1	1	F	L	u	0	Miss	0	S
13	2	1	2	F	L	t	2	Correct	710	S
13	2	1	3	F	L	q	2	Correct	747	S
13	2	1	4	F	L	b	2	Correct	496	S
13	2	1	5	F	L	f	1	Correct	588	S
13	2	1	6	F	L	f	1	Correct	521	S
13	2	1	7	F	L	f	1	Correct	581	S
13	2	1	8	F	L	j	2	Correct	593	S
13	2	1	9	F	L	g	2	Correct	638	S
13	2	1	10	F	L	f	1	Correct	714	S
13	2	1	11	F	L	g	2	Correct	790	S
13	2	1	12	F	L	h	2	Correct	707	S
13	2	1	13	F	L	a	2	Correct	495	S
13	2	1	14	F	L	h	2	Correct	443	S
13	2	1	15	F	L	b	2	Correct	344	S
13	2	1	16	F	L	f	1	Correct	389	S
13	2	1	17	F	L	y	2	Correct	377	S
13	2	1	18	F	L	d	2	Correct	294	S
13	2	1	19	F	L	r	2	Correct	259	S
13	2	1	20	F	L	f	2	Incorrect	239	S
13	2	1	21	F	L	f	1	Correct	492	S
13	2	1	22	F	L	r	2	Correct	513	S
13	2	1	23	F	L	h	2	Correct	925	S
13	2	1	24	F	L	a	2	Correct	553	S
13	2	1	25	F	L	j	2	Correct	389	S
13	2	2	1	G  J  U  W  E	H	e	0	Miss	0	S
13	2	2	2	G  J  U  W  E	H	g	1	Correct	597	S
13	2	2	3	G  J  U  W  E	H	k	2	Incorrect	714	S
13	2	2	4	G  J  U  W  E	H	h	2	Incorrect	806	S
13	2	2	5	G  J  U  W  E	H	r	2	Incorrect	682	S
13	2	2	6	G  J  U  W  E	H	t	2	Incorrect	646	S
13	2	2	7	G  J  U  W  E	H	y	2	Incorrect	746	S
13	2	2	8	G  J  U  W  E	H	u	1	Correct	622	S
13	2	2	9	G  J  U  W  E	H	e	1	Correct	667	S
13	2	2	10	G  J  U  W  E	H	u	1	Correct	487	S
13	2	2	11	G  J  U  W  E	H	w	1	Correct	571	S
13	2	2	12	G  J  U  W  E	H	q	2	Incorrect	584	S
13	2	2	13	G  J  U  W  E	H	d	2	Incorrect	701	S
13	2	2	14	G  J  U  W  E	H	r	2	Incorrect	825	S
13	2	2	15	G  J  U  W  E	H	k	2	Incorrect	757	S
13	2	2	16	G  J  U  W  E	H	d	2	Incorrect	609	S
13	2	2	17	G  J  U  W  E	H	j	1	Correct	734	S
13	2	2	18	G  J  U  W  E	H	e	1	Correct	722	S
13	2	2	19	G  J  U  W  E	H	g	1	Correct	839	S
13	2	2	20	G  J  U  W  E	H	a	2	Incorrect	635	S
13	2	2	21	G  J  U  W  E	H	u	1	Correct	416	S
13	2	2	22	G  J  U  W  E	H	j	1	Correct	581	S
13	2	2	23	G  J  U  W  E	H	r	2	Incorrect	609	S
13	2	2	24	G  J  U  W  E	H	n	2	Incorrect	886	S
13	2	2	25	G  J  U  W  E	H	q	2	Incorrect	586	S
13	2	3	1	T  N  Y	M	g	2	Correct	597	S
13	2	3	2	T  N  Y	M	y	1	Correct	754	S
13	2	3	3	T  N  Y	M	b	2	Correct	462	S
13	2	3	4	T  N  Y	M	h	2	Correct	578	S
13	2	3	5	T  N  Y	M	q	2	Correct	462	S
13	2	3	6	T  N  Y	M	q	2	Correct	475	S
13	2	3	7	T  N  Y	M	d	2	Correct	488	S
13	2	3	8	T  N  Y	M	n	1	Correct	516	S
13	2	3	9	T  N  Y	M	j	2	Correct	456	S
13	2	3	10	T  N  Y	M	a	2	Correct	493	S
13	2	3	11	T  N  Y	M	w	2	Correct	658	S
13	2	3	12	T  N  Y	M	n	1	Correct	638	S
13	2	3	13	T  N  Y	M	t	1	Correct	835	S
13	2	3	14	T  N  Y	M	n	1	Correct	423	S
13	2	3	15	T  N  Y	M	y	1	Correct	364	S
13	2	3	16	T  N  Y	M	h	2	Correct	481	S
13	2	3	17	T  N  Y	M	n	0	Miss	0	S
13	2	3	18	T  N  Y	M	r	2	Correct	505	S
13	2	3	19	T  N  Y	M	n	1	Correct	349	S
13	2	3	20	T  N  Y	M	w	2	Correct	538	S
13	2	3	21	T  N  Y	M	t	1	Correct	502	S
13	2	3	22	T  N  Y	M	u	1	Incorrect	634	S
13	2	3	23	T  N  Y	M	m	2	Correct	495	S
13	2	3	24	T  N  Y	M	t	1	Correct	532	S
13	2	3	25	T  N  Y	M	k	2	Correct	560	S
13	2	4	1	N  W  E	M	e	1	Correct	763	S
13	2	4	2	N  W  E	M	a	2	Correct	519	S
13	2	4	3	N  W  E	M	w	1	Correct	436	S
13	2	4	4	N  W  E	M	u	1	Incorrect	528	S
13	2	4	5	N  W  E	M	n	1	Correct	629	S
13	2	4	6	N  W  E	M	b	2	Correct	553	S
13	2	4	7	N  W  E	M	w	1	Correct	638	S
13	2	4	8	N  W  E	M	e	1	Correct	410	S
13	2	4	9	N  W  E	M	n	2	Incorrect	655	S
13	2	4	10	N  W  E	M	y	0	Miss	0	S
13	2	4	11	N  W  E	M	y	2	Correct	704	S
13	2	4	12	N  W  E	M	t	2	Correct	525	S
13	2	4	13	N  W  E	M	g	2	Correct	553	S
13	2	4	14	N  W  E	M	n	1	Correct	526	S
13	2	4	15	N  W  E	M	n	1	Correct	555	S
13	2	4	16	N  W  E	M	m	2	Correct	711	S
13	2	4	17	N  W  E	M	t	2	Correct	716	S
13	2	4	18	N  W  E	M	b	2	Correct	456	S
13	2	4	19	N  W  E	M	e	1	Correct	501	S
13	2	4	20	N  W  E	M	a	2	Correct	505	S
13	2	4	21	N  W  E	M	k	2	Correct	470	S
13	2	4	22	N  W  E	M	u	1	Incorrect	499	S
13	2	4	23	N  W  E	M	q	2	Correct	487	S
13	2	4	24	N  W  E	M	n	1	Correct	611	S
13	2	4	25	N  W  E	M	y	2	Correct	728	S
13	2	5	1	R  J  E  M  K	H	w	2	Incorrect	787	S
13	2	5	2	R  J  E  M  K	H	m	1	Correct	846	S
13	2	5	3	R  J  E  M  K	H	k	1	Correct	803	S
13	2	5	4	R  J  E  M  K	H	j	2	Incorrect	599	S
13	2	5	5	R  J  E  M  K	H	g	0	Miss	0	S
13	2	5	6	R  J  E  M  K	H	b	2	Incorrect	624	S
13	2	5	7	R  J  E  M  K	H	j	1	Correct	661	S
13	2	5	8	R  J  E  M  K	H	a	2	Incorrect	657	S
13	2	5	9	R  J  E  M  K	H	y	2	Incorrect	774	S
13	2	5	10	R  J  E  M  K	H	h	2	Incorrect	746	S
13	2	5	11	R  J  E  M  K	H	j	1	Correct	367	S
13	2	5	12	R  J  E  M  K	H	u	2	Incorrect	603	S
13	2	5	13	R  J  E  M  K	H	w	2	Incorrect	656	S
13	2	5	14	R  J  E  M  K	H	f	2	Incorrect	597	S
13	2	5	15	R  J  E  M  K	H	j	2	Incorrect	361	S
13	2	5	16	R  J  E  M  K	H	n	2	Incorrect	798	S
13	2	5	17	R  J  E  M  K	H	b	2	Incorrect	435	S
13	2	5	18	R  J  E  M  K	H	d	2	Incorrect	431	S
13	2	5	19	R  J  E  M  K	H	r	1	Correct	508	S
13	2	5	20	R  J  E  M  K	H	b	2	Incorrect	473	S
13	2	5	21	R  J  E  M  K	H	a	2	Incorrect	893	S
13	2	5	22	R  J  E  M  K	H	f	2	Incorrect	801	S
13	2	5	23	R  J  E  M  K	H	n	2	Incorrect	646	S
13	2	5	24	R  J  E  M  K	H	n	2	Incorrect	667	S
13	2	5	25	R  J  E  M  K	H	y	2	Incorrect	527	S
13	2	6	1	E	L	e	1	Correct	762	S
13	2	6	2	E	L	t	2	Correct	558	S
13	2	6	3	E	L	r	2	Correct	579	S
13	2	6	4	E	L	e	1	Correct	495	S
13	2	6	5	E	L	e	1	Correct	500	S
13	2	6	6	E	L	b	2	Correct	536	S
13	2	6	7	E	L	y	2	Correct	517	S
13	2	6	8	E	L	e	1	Correct	457	S
13	2	6	9	E	L	m	2	Correct	517	S
13	2	6	10	E	L	e	1	Correct	386	S
13	2	6	11	E	L	w	1	Incorrect	590	S
13	2	6	12	E	L	m	0	Miss	0	S
13	2	6	13	E	L	y	2	Correct	454	S
13	2	6	14	E	L	e	1	Correct	522	S
13	2	6	15	E	L	a	2	Correct	687	S
13	2	6	16	E	L	j	2	Correct	563	S
13	2	6	17	E	L	y	2	Correct	728	S
13	2	6	18	E	L	b	2	Correct	429	S
13	2	6	19	E	L	e	1	Correct	489	S
13	2	6	20	E	L	r	2	Correct	421	S
13	2	6	21	E	L	m	2	Correct	650	S
13	2	6	22	E	L	e	1	Correct	495	S
13	2	6	23	E	L	e	1	Correct	459	S
13	2	6	24	E	L	e	1	Correct	352	S
13	2	6	25	E	L	k	2	Correct	516	S
13	1	1	1	G  A  T  N  E	H	f	0	Miss	0	A
13	1	1	2	G  A  T  N  E	H	w	0	Miss	0	A
13	1	1	3	G  A  T  N  E	H	n	0	Miss	0	A
13	1	1	4	G  A  T  N  E	H	d	0	Miss	0	A
13	1	1	5	G  A  T  N  E	H	k	0	Miss	0	A
13	1	1	6	G  A  T  N  E	H	u	2	Incorrect	987	A
13	1	1	7	G  A  T  N  E	H	a	1	Correct	712	A
13	1	1	8	G  A  T  N  E	H	b	2	Incorrect	700	A
13	1	1	9	G  A  T  N  E	H	h	2	Incorrect	664	A
13	1	1	10	G  A  T  N  E	H	e	0	Miss	0	A
13	1	1	11	G  A  T  N  E	H	a	0	Miss	0	A
13	1	1	12	G  A  T  N  E	H	k	2	Incorrect	581	A
13	1	1	13	G  A  T  N  E	H	r	2	Incorrect	762	A
13	1	1	14	G  A  T  N  E	H	y	2	Incorrect	758	A
13	1	1	15	G  A  T  N  E	H	h	2	Incorrect	811	A
13	1	1	16	G  A  T  N  E	H	n	1	Correct	608	A
13	1	1	17	G  A  T  N  E	H	n	1	Correct	540	A
13	1	1	18	G  A  T  N  E	H	n	1	Correct	440	A
13	1	1	19	G  A  T  N  E	H	r	2	Incorrect	732	A
13	1	1	20	G  A  T  N  E	H	b	2	Incorrect	969	A
13	1	1	21	G  A  T  N  E	H	w	0	Miss	0	A
13	1	1	22	G  A  T  N  E	H	e	1	Correct	810	A
13	1	1	23	G  A  T  N  E	H	e	1	Correct	983	A
13	1	1	24	G  A  T  N  E	H	q	2	Incorrect	619	A
13	1	1	25	G  A  T  N  E	H	k	2	Incorrect	679	A
13	1	2	1	J  H  F	M	e	2	Correct	930	A
13	1	2	2	J  H  F	M	r	2	Correct	495	A
13	1	2	3	J  H  F	M	h	1	Correct	771	A
13	1	2	4	J  H  F	M	h	1	Correct	544	A
13	1	2	5	J  H  F	M	h	1	Correct	637	A
13	1	2	6	J  H  F	M	h	1	Correct	449	A
13	1	2	7	J  H  F	M	d	2	Correct	629	A
13	1	2	8	J  H  F	M	j	1	Correct	602	A
13	1	2	9	J  H  F	M	n	2	Correct	663	A
13	1	2	10	J  H  F	M	b	2	Correct	690	A
13	1	2	11	J  H  F	M	u	2	Correct	454	A
13	1	2	12	J  H  F	M	m	2	Correct	594	A
13	1	2	13	J  H  F	M	h	1	Correct	663	A
13	1	2	14	J  H  F	M	y	2	Correct	787	A
13	1	2	15	J  H  F	M	f	1	Correct	671	A
13	1	2	16	J  H  F	M	n	2	Correct	732	A
13	1	2	17	J  H  F	M	b	2	Correct	464	A
13	1	2	18	J  H  F	M	h	1	Correct	653	A
13	1	2	19	J  H  F	M	q	2	Correct	505	A
13	1	2	20	J  H  F	M	u	2	Correct	629	A
13	1	2	21	J  H  F	M	n	2	Correct	433	A
13	1	2	22	J  H  F	M	q	2	Correct	542	A
13	1	2	23	J  H  F	M	m	2	Correct	587	A
13	1	2	24	J  H  F	M	j	2	Incorrect	375	A
13	1	2	25	J  H  F	M	h	1	Correct	764	A
13	1	3	1	E	L	e	1	Correct	735	A
13	1	3	2	E	L	e	1	Correct	387	A
13	1	3	3	E	L	e	1	Correct	368	A
13	1	3	4	E	L	e	1	Correct	405	A
13	1	3	5	E	L	e	1	Correct	369	A
13	1	3	6	E	L	j	2	Correct	566	A
13	1	3	7	E	L	e	1	Correct	491	A
13	1	3	8	E	L	e	1	Correct	495	A
13	1	3	9	E	L	u	2	Correct	506	A
13	1	3	10	E	L	w	2	Correct	607	A
13	1	3	11	E	L	u	2	Correct	684	A
13	1	3	12	E	L	a	2	Correct	520	A
13	1	3	13	E	L	e	1	Correct	597	A
13	1	3	14	E	L	e	1	Correct	586	A
13	1	3	15	E	L	g	2	Correct	614	A
13	1	3	16	E	L	e	1	Correct	555	A
13	1	3	17	E	L	a	2	Correct	856	A
13	1	3	18	E	L	e	1	Correct	516	A
13	1	3	19	E	L	e	1	Correct	561	A
13	1	3	20	E	L	e	1	Correct	325	A
13	1	3	21	E	L	h	2	Correct	425	A
13	1	3	22	E	L	r	2	Correct	893	A
13	1	3	23	E	L	e	1	Correct	554	A
13	1	3	24	E	L	g	2	Correct	511	A
13	1	3	25	E	L	y	1	Incorrect	651	A
13	1	4	1	E  Y  H  W  A	H	f	2	Incorrect	910	A
13	1	4	2	E  Y  H  W  A	H	m	2	Incorrect	659	A
13	1	4	3	E  Y  H  W  A	H	h	1	Correct	911	A
13	1	4	4	E  Y  H  W  A	H	r	2	Incorrect	667	A
13	1	4	5	E  Y  H  W  A	H	b	2	Incorrect	720	A
13	1	4	6	E  Y  H  W  A	H	m	2	Incorrect	605	A
13	1	4	7	E  Y  H  W  A	H	t	2	Incorrect	537	A
13	1	4	8	E  Y  H  W  A	H	h	1	Correct	741	A
13	1	4	9	E  Y  H  W  A	H	r	2	Incorrect	626	A
13	1	4	10	E  Y  H  W  A	H	r	2	Incorrect	534	A
13	1	4	11	E  Y  H  W  A	H	n	2	Incorrect	939	A
13	1	4	12	E  Y  H  W  A	H	h	1	Correct	600	A
13	1	4	13	E  Y  H  W  A	H	d	2	Incorrect	868	A
13	1	4	14	E  Y  H  W  A	H	t	2	Incorrect	889	A
13	1	4	15	E  Y  H  W  A	H	m	2	Incorrect	822	A
13	1	4	16	E  Y  H  W  A	H	w	1	Correct	658	A
13	1	4	17	E  Y  H  W  A	H	w	1	Correct	727	A
13	1	4	18	E  Y  H  W  A	H	g	0	Miss	0	A
13	1	4	19	E  Y  H  W  A	H	h	2	Incorrect	15	A
13	1	4	20	E  Y  H  W  A	H	u	2	Incorrect	684	A
13	1	4	21	E  Y  H  W  A	H	y	0	Miss	0	A
13	1	4	22	E  Y  H  W  A	H	h	1	Correct	676	A
13	1	4	23	E  Y  H  W  A	H	b	2	Incorrect	593	A
13	1	4	24	E  Y  H  W  A	H	t	2	Incorrect	701	A
13	1	4	25	E  Y  H  W  A	H	j	1	Correct	593	A
13	1	5	1	G	L	b	2	Correct	907	A
13	1	5	2	G	L	j	2	Correct	767	A
13	1	5	3	G	L	g	1	Correct	444	A
13	1	5	4	G	L	k	2	Correct	345	A
13	1	5	5	G	L	j	2	Correct	421	A
13	1	5	6	G	L	g	1	Correct	609	A
13	1	5	7	G	L	g	1	Correct	493	A
13	1	5	8	G	L	e	2	Correct	522	A
13	1	5	9	G	L	g	1	Correct	598	A
13	1	5	10	G	L	g	1	Correct	498	A
13	1	5	11	G	L	g	1	Correct	471	A
13	1	5	12	G	L	k	2	Correct	732	A
13	1	5	13	G	L	b	2	Correct	848	A
13	1	5	14	G	L	n	2	Correct	709	A
13	1	5	15	G	L	g	1	Correct	481	A
13	1	5	16	G	L	g	1	Correct	446	A
13	1	5	17	G	L	a	2	Correct	474	A
13	1	5	18	G	L	a	2	Correct	463	A
13	1	5	19	G	L	g	1	Correct	492	A
13	1	5	20	G	L	a	2	Correct	488	A
13	1	5	21	G	L	g	1	Correct	357	A
13	1	5	22	G	L	g	1	Correct	481	A
13	1	5	23	G	L	g	1	Correct	470	A
13	1	5	24	G	L	t	2	Correct	459	A
13	1	5	25	G	L	g	1	Correct	519	A
13	1	6	1	D  M  E	M	j	0	Miss	0	A
13	1	6	2	D  M  E	M	u	2	Correct	495	A
13	1	6	3	D  M  E	M	d	1	Correct	451	A
13	1	6	4	D  M  E	M	e	1	Correct	680	A
13	1	6	5	D  M  E	M	n	2	Correct	716	A
13	1	6	6	D  M  E	M	d	1	Correct	569	A
13	1	6	7	D  M  E	M	k	2	Correct	421	A
13	1	6	8	D  M  E	M	m	1	Correct	602	A
13	1	6	9	D  M  E	M	e	1	Correct	567	A
13	1	6	10	D  M  E	M	m	1	Correct	635	A
13	1	6	11	D  M  E	M	e	1	Correct	528	A
13	1	6	12	D  M  E	M	j	2	Correct	508	A
13	1	6	13	D  M  E	M	d	1	Correct	377	A
13	1	6	14	D  M  E	M	q	2	Correct	542	A
13	1	6	15	D  M  E	M	j	2	Correct	762	A
13	1	6	16	D  M  E	M	e	1	Correct	567	A
13	1	6	17	D  M  E	M	d	1	Correct	683	A
13	1	6	18	D  M  E	M	g	2	Correct	640	A
13	1	6	19	D  M  E	M	b	2	Correct	748	A
13	1	6	20	D  M  E	M	e	2	Incorrect	408	A
13	1	6	21	D  M  E	M	d	1	Correct	693	A
13	1	6	22	D  M  E	M	d	1	Correct	713	A
13	1	6	23	D  M  E	M	a	2	Correct	781	A
13	1	6	24	D  M  E	M	q	1	Incorrect	849	A
13	1	6	25	D  M  E	M	q	2	Correct	734	A
12	2	1	1	Q  Y  H  J  D	H	g	0	Miss	0	A
12	2	1	2	Q  Y  H  J  D	H	t	2	Incorrect	726	A
12	2	1	3	Q  Y  H  J  D	H	j	1	Correct	618	A
12	2	1	4	Q  Y  H  J  D	H	e	2	Incorrect	631	A
12	2	1	5	Q  Y  H  J  D	H	j	1	Correct	540	A
12	2	1	6	Q  Y  H  J  D	H	d	1	Correct	640	A
12	2	1	7	Q  Y  H  J  D	H	a	1	Correct	973	A
12	2	1	8	Q  Y  H  J  D	H	q	0	Miss	0	A
12	2	1	9	Q  Y  H  J  D	H	a	1	Correct	534	A
12	2	1	10	Q  Y  H  J  D	H	a	2	Incorrect	530	A
12	2	1	11	Q  Y  H  J  D	H	q	1	Correct	711	A
12	2	1	12	Q  Y  H  J  D	H	f	2	Incorrect	580	A
12	2	1	13	Q  Y  H  J  D	H	h	1	Correct	640	A
12	2	1	14	Q  Y  H  J  D	H	e	2	Incorrect	805	A
12	2	1	15	Q  Y  H  J  D	H	y	2	Incorrect	641	A
12	2	1	16	Q  Y  H  J  D	H	a	2	Incorrect	557	A
12	2	1	17	Q  Y  H  J  D	H	a	2	Incorrect	602	A
12	2	1	18	Q  Y  H  J  D	H	n	3	Incorrect	15	A
12	2	1	19	Q  Y  H  J  D	H	h	1	Correct	531	A
12	2	1	20	Q  Y  H  J  D	H	t	2	Incorrect	559	A
12	2	1	21	Q  Y  H  J  D	H	j	1	Correct	556	A
12	2	1	22	Q  Y  H  J  D	H	r	2	Incorrect	585	A
12	2	1	23	Q  Y  H  J  D	H	h	1	Correct	525	A
12	2	1	24	Q  Y  H  J  D	H	e	2	Incorrect	578	A
12	2	1	25	Q  Y  H  J  D	H	f	2	Incorrect	854	A
12	2	2	1	H  R  W	M	f	2	Correct	858	A
12	2	2	2	H  R  W	M	u	2	Correct	535	A
12	2	2	3	H  R  W	M	u	2	Correct	451	A
12	2	2	4	H  R  W	M	k	2	Correct	424	A
12	2	2	5	H  R  W	M	u	2	Correct	692	A
12	2	2	6	H  R  W	M	t	2	Correct	457	A
12	2	2	7	H  R  W	M	d	2	Correct	646	A
12	2	2	8	H  R  W	M	g	2	Correct	874	A
12	2	2	9	H  R  W	M	f	2	Correct	495	A
12	2	2	10	H  R  W	M	h	1	Correct	564	A
12	2	2	11	H  R  W	M	w	1	Correct	464	A
12	2	2	12	H  R  W	M	w	1	Correct	397	A
12	2	2	13	H  R  W	M	j	2	Correct	634	A
12	2	2	14	H  R  W	M	w	1	Correct	766	A
12	2	2	15	H  R  W	M	r	1	Correct	611	A
12	2	2	16	H  R  W	M	w	1	Correct	727	A
12	2	2	17	H  R  W	M	w	1	Correct	523	A
12	2	2	18	H  R  W	M	r	1	Correct	448	A
12	2	2	19	H  R  W	M	h	1	Correct	533	A
12	2	2	20	H  R  W	M	u	2	Correct	497	A
12	2	2	21	H  R  W	M	e	2	Correct	589	A
12	2	2	22	H  R  W	M	j	2	Correct	978	A
12	2	2	23	H  R  W	M	f	2	Correct	631	A
12	2	2	24	H  R  W	M	r	1	Correct	947	A
12	2	2	25	H  R  W	M	f	2	Correct	664	A
12	2	3	1	J	L	h	2	Correct	459	A
12	2	3	2	J	L	q	2	Correct	376	A
12	2	3	3	J	L	j	1	Correct	413	A
12	2	3	4	J	L	w	2	Correct	361	A
12	2	3	5	J	L	n	2	Correct	390	A
12	2	3	6	J	L	j	1	Correct	467	A
12	2	3	7	J	L	j	1	Correct	303	A
12	2	3	8	J	L	t	2	Correct	364	A
12	2	3	9	J	L	j	1	Correct	440	A
12	2	3	10	J	L	m	2	Correct	436	A
12	2	3	11	J	L	r	2	Correct	409	A
12	2	3	12	J	L	j	1	Correct	510	A
12	2	3	13	J	L	h	2	Correct	450	A
12	2	3	14	J	L	r	2	Correct	575	A
12	2	3	15	J	L	n	2	Correct	412	A
12	2	3	16	J	L	j	1	Correct	624	A
12	2	3	17	J	L	g	2	Correct	549	A
12	2	3	18	J	L	j	1	Correct	402	A
12	2	3	19	J	L	j	1	Correct	350	A
12	2	3	20	J	L	j	1	Correct	387	A
12	2	3	21	J	L	f	2	Correct	487	A
12	2	3	22	J	L	j	1	Correct	531	A
12	2	3	23	J	L	f	2	Correct	463	A
12	2	3	24	J	L	j	1	Correct	612	A
12	2	3	25	J	L	m	2	Correct	360	A
12	2	4	1	Y  A  F  J  U	H	j	0	Miss	0	A
12	2	4	2	Y  A  F  J  U	H	h	0	Miss	0	A
12	2	4	3	Y  A  F  J  U	H	d	1	Correct	661	A
12	2	4	4	Y  A  F  J  U	H	w	1	Correct	473	A
12	2	4	5	Y  A  F  J  U	H	j	0	Miss	0	A
12	2	4	6	Y  A  F  J  U	H	h	0	Miss	0	A
12	2	4	7	Y  A  F  J  U	H	e	2	Incorrect	591	A
12	2	4	8	Y  A  F  J  U	H	f	1	Correct	411	A
12	2	4	9	Y  A  F  J  U	H	f	1	Correct	688	A
12	2	4	10	Y  A  F  J  U	H	u	0	Miss	0	A
12	2	4	11	Y  A  F  J  U	H	q	2	Incorrect	585	A
12	2	4	12	Y  A  F  J  U	H	q	2	Incorrect	382	A
12	2	4	13	Y  A  F  J  U	H	u	1	Correct	762	A
12	2	4	14	Y  A  F  J  U	H	m	2	Incorrect	527	A
12	2	4	15	Y  A  F  J  U	H	w	2	Incorrect	452	A
12	2	4	16	Y  A  F  J  U	H	q	2	Incorrect	528	A
12	2	4	17	Y  A  F  J  U	H	y	1	Correct	493	A
12	2	4	18	Y  A  F  J  U	H	y	1	Correct	434	A
12	2	4	19	Y  A  F  J  U	H	j	2	Incorrect	678	A
12	2	4	20	Y  A  F  J  U	H	d	2	Incorrect	603	A
12	2	4	21	Y  A  F  J  U	H	j	1	Correct	663	A
12	2	4	22	Y  A  F  J  U	H	j	1	Correct	379	A
12	2	4	23	Y  A  F  J  U	H	k	2	Incorrect	536	A
12	2	4	24	Y  A  F  J  U	H	k	2	Incorrect	533	A
12	2	4	25	Y  A  F  J  U	H	j	1	Correct	705	A
12	2	5	1	Y  K  U	M	a	2	Correct	564	A
12	2	5	2	Y  K  U	M	h	2	Correct	489	A
12	2	5	3	Y  K  U	M	u	1	Correct	973	A
12	2	5	4	Y  K  U	M	g	2	Correct	753	A
12	2	5	5	Y  K  U	M	u	1	Correct	710	A
12	2	5	6	Y  K  U	M	y	1	Correct	779	A
12	2	5	7	Y  K  U	M	k	1	Correct	575	A
12	2	5	8	Y  K  U	M	u	1	Correct	548	A
12	2	5	9	Y  K  U	M	w	2	Correct	585	A
12	2	5	10	Y  K  U	M	f	2	Correct	541	A
12	2	5	11	Y  K  U	M	a	2	Correct	617	A
12	2	5	12	Y  K  U	M	t	2	Correct	430	A
12	2	5	13	Y  K  U	M	k	1	Correct	994	A
12	2	5	14	Y  K  U	M	h	2	Correct	711	A
12	2	5	15	Y  K  U	M	y	1	Correct	452	A
12	2	5	16	Y  K  U	M	q	2	Correct	552	A
12	2	5	17	Y  K  U	M	e	2	Correct	541	A
12	2	5	18	Y  K  U	M	y	1	Correct	642	A
12	2	5	19	Y  K  U	M	y	2	Incorrect	102	A
12	2	5	20	Y  K  U	M	u	1	Correct	723	A
12	2	5	21	Y  K  U	M	k	1	Correct	471	A
12	2	5	22	Y  K  U	M	m	2	Correct	539	A
12	2	5	23	Y  K  U	M	k	1	Correct	888	A
12	2	5	24	Y  K  U	M	f	2	Correct	749	A
12	2	5	25	Y  K  U	M	a	2	Correct	705	A
12	2	6	1	E	L	e	1	Correct	805	A
12	2	6	2	E	L	e	1	Correct	393	A
12	2	6	3	E	L	y	2	Correct	390	A
12	2	6	4	E	L	e	1	Correct	411	A
12	2	6	5	E	L	n	2	Correct	447	A
12	2	6	6	E	L	k	2	Correct	523	A
12	2	6	7	E	L	k	2	Correct	383	A
12	2	6	8	E	L	h	2	Correct	820	A
12	2	6	9	E	L	b	2	Correct	481	A
12	2	6	10	E	L	q	2	Correct	389	A
12	2	6	11	E	L	e	1	Correct	433	A
12	2	6	12	E	L	e	1	Correct	286	A
12	2	6	13	E	L	e	1	Correct	402	A
12	2	6	14	E	L	j	2	Correct	550	A
12	2	6	15	E	L	e	2	Incorrect	163	A
12	2	6	16	E	L	h	2	Correct	736	A
12	2	6	17	E	L	y	2	Correct	620	A
12	2	6	18	E	L	u	2	Correct	576	A
12	2	6	19	E	L	e	1	Correct	589	A
12	2	6	20	E	L	t	2	Correct	825	A
12	2	6	21	E	L	e	1	Correct	701	A
12	2	6	22	E	L	e	1	Correct	393	A
12	2	6	23	E	L	e	1	Correct	501	A
12	2	6	24	E	L	e	1	Correct	354	A
12	2	6	25	E	L	e	1	Correct	415	A
15	1	1	1	W	L	q	0	Miss	0	A
15	1	1	2	W	L	w	2	Incorrect	37	A
15	1	1	3	W	L	e	2	Correct	482	A
15	1	1	4	W	L	w	1	Correct	521	A
15	1	1	5	W	L	f	2	Correct	441	A
15	1	1	6	W	L	y	2	Correct	541	A
15	1	1	7	W	L	w	1	Correct	354	A
15	1	1	8	W	L	j	2	Correct	289	A
15	1	1	9	W	L	j	1	Incorrect	312	A
15	1	1	10	W	L	m	2	Correct	353	A
15	1	1	11	W	L	h	2	Correct	240	A
15	1	1	12	W	L	y	2	Correct	430	A
15	1	1	13	W	L	q	2	Correct	425	A
15	1	1	14	W	L	w	2	Incorrect	419	A
15	1	1	15	W	L	w	1	Correct	518	A
15	1	1	16	W	L	w	1	Correct	408	A
15	1	1	17	W	L	u	2	Correct	493	A
15	1	1	18	W	L	r	2	Correct	471	A
15	1	1	19	W	L	u	2	Correct	390	A
15	1	1	20	W	L	t	2	Correct	398	A
15	1	1	21	W	L	j	2	Correct	363	A
15	1	1	22	W	L	w	1	Correct	297	A
15	1	1	23	W	L	j	2	Correct	412	A
15	1	1	24	W	L	r	2	Correct	452	A
15	1	1	25	W	L	w	1	Correct	445	A
15	1	2	1	N	L	k	0	Miss	0	A
15	1	2	2	N	L	f	2	Correct	624	A
15	1	2	3	N	L	n	1	Correct	453	A
15	1	2	4	N	L	n	1	Correct	568	A
15	1	2	5	N	L	e	2	Correct	413	A
15	1	2	6	N	L	n	1	Correct	513	A
15	1	2	7	N	L	n	1	Correct	433	A
15	1	2	8	N	L	f	2	Correct	428	A
15	1	2	9	N	L	n	1	Correct	573	A
15	1	2	10	N	L	u	1	Incorrect	522	A
15	1	2	11	N	L	j	2	Correct	517	A
15	1	2	12	N	L	n	1	Correct	452	A
15	1	2	13	N	L	n	1	Correct	582	A
15	1	2	14	N	L	n	1	Correct	517	A
15	1	2	15	N	L	n	1	Correct	392	A
15	1	2	16	N	L	h	2	Correct	582	A
15	1	2	17	N	L	g	2	Correct	667	A
15	1	2	18	N	L	n	1	Correct	391	A
15	1	2	19	N	L	h	2	Correct	536	A
15	1	2	20	N	L	j	2	Correct	591	A
15	1	2	21	N	L	w	2	Correct	721	A
15	1	2	22	N	L	n	1	Correct	401	A
15	1	2	23	N	L	b	2	Correct	561	A
15	1	2	24	N	L	n	1	Correct	450	A
15	1	2	25	N	L	b	2	Correct	595	A
15	1	3	1	U  M  R  D  G	H	h	2	Incorrect	766	A
15	1	3	2	U  M  R  D  G	H	n	2	Incorrect	745	A
15	1	3	3	U  M  R  D  G	H	t	2	Incorrect	515	A
15	1	3	4	U  M  R  D  G	H	a	2	Incorrect	540	A
15	1	3	5	U  M  R  D  G	H	d	1	Correct	745	A
15	1	3	6	U  M  R  D  G	H	b	1	Correct	635	A
15	1	3	7	U  M  R  D  G	H	r	2	Incorrect	449	A
15	1	3	8	U  M  R  D  G	H	y	2	Incorrect	775	A
15	1	3	9	U  M  R  D  G	H	k	2	Incorrect	770	A
15	1	3	10	U  M  R  D  G	H	u	1	Correct	584	A
15	1	3	11	U  M  R  D  G	H	n	2	Incorrect	683	A
15	1	3	12	U  M  R  D  G	H	h	2	Incorrect	527	A
15	1	3	13	U  M  R  D  G	H	a	2	Incorrect	522	A
15	1	3	14	U  M  R  D  G	H	a	2	Incorrect	472	A
15	1	3	15	U  M  R  D  G	H	f	2	Incorrect	797	A
15	1	3	16	U  M  R  D  G	H	q	2	Incorrect	507	A
15	1	3	17	U  M  R  D  G	H	r	1	Correct	411	A
15	1	3	18	U  M  R  D  G	H	q	2	Incorrect	302	A
15	1	3	19	U  M  R  D  G	H	w	2	Incorrect	582	A
15	1	3	20	U  M  R  D  G	H	j	2	Incorrect	516	A
15	1	3	21	U  M  R  D  G	H	d	1	Correct	524	A
15	1	3	22	U  M  R  D  G	H	r	2	Incorrect	279	A
15	1	3	23	U  M  R  D  G	H	f	2	Incorrect	559	A
15	1	3	24	U  M  R  D  G	H	b	2	Incorrect	824	A
15	1	3	25	U  M  R  D  G	H	m	2	Incorrect	639	A
15	1	4	1	F  Y  A	M	a	1	Correct	661	A
15	1	4	2	F  Y  A	M	h	2	Correct	626	A
15	1	4	3	F  Y  A	M	j	2	Correct	575	A
15	1	4	4	F  Y  A	M	f	1	Correct	599	A
15	1	4	5	F  Y  A	M	r	2	Correct	788	A
15	1	4	6	F  Y  A	M	w	2	Correct	558	A
15	1	4	7	F  Y  A	M	f	1	Correct	551	A
15	1	4	8	F  Y  A	M	n	2	Correct	561	A
15	1	4	9	F  Y  A	M	j	2	Correct	721	A
15	1	4	10	F  Y  A	M	k	2	Correct	551	A
15	1	4	11	F  Y  A	M	n	2	Correct	456	A
15	1	4	12	F  Y  A	M	h	2	Correct	419	A
15	1	4	13	F  Y  A	M	e	2	Correct	489	A
15	1	4	14	F  Y  A	M	f	1	Correct	664	A
15	1	4	15	F  Y  A	M	y	1	Correct	374	A
15	1	4	16	F  Y  A	M	f	1	Correct	504	A
15	1	4	17	F  Y  A	M	m	2	Correct	409	A
15	1	4	18	F  Y  A	M	j	2	Correct	418	A
15	1	4	19	F  Y  A	M	w	2	Correct	398	A
15	1	4	20	F  Y  A	M	b	2	Correct	393	A
15	1	4	21	F  Y  A	M	h	2	Correct	313	A
15	1	4	22	F  Y  A	M	f	1	Correct	398	A
15	1	4	23	F  Y  A	M	a	2	Incorrect	3	A
15	1	4	24	F  Y  A	M	j	2	Correct	688	A
15	1	4	25	F  Y  A	M	e	2	Correct	532	A
15	1	5	1	Y  Q  K	M	k	1	Correct	734	A
15	1	5	2	Y  Q  K	M	f	2	Correct	654	A
15	1	5	3	Y  Q  K	M	k	1	Correct	499	A
15	1	5	4	Y  Q  K	M	r	2	Correct	554	A
15	1	5	5	Y  Q  K	M	e	2	Correct	489	A
15	1	5	6	Y  Q  K	M	d	2	Correct	514	A
15	1	5	7	Y  Q  K	M	h	2	Correct	538	A
15	1	5	8	Y  Q  K	M	a	2	Correct	578	A
15	1	5	9	Y  Q  K	M	y	1	Correct	408	A
15	1	5	10	Y  Q  K	M	a	2	Correct	418	A
15	1	5	11	Y  Q  K	M	q	2	Incorrect	548	A
15	1	5	12	Y  Q  K	M	t	2	Correct	618	A
15	1	5	13	Y  Q  K	M	n	2	Correct	851	A
15	1	5	14	Y  Q  K	M	n	2	Correct	486	A
15	1	5	15	Y  Q  K	M	g	2	Correct	571	A
15	1	5	16	Y  Q  K	M	d	2	Correct	641	A
15	1	5	17	Y  Q  K	M	y	1	Correct	484	A
15	1	5	18	Y  Q  K	M	u	0	Miss	0	A
15	1	5	19	Y  Q  K	M	t	2	Correct	518	A
15	1	5	20	Y  Q  K	M	j	2	Correct	573	A
15	1	5	21	Y  Q  K	M	w	2	Correct	523	A
15	1	5	22	Y  Q  K	M	e	2	Correct	548	A
15	1	5	23	Y  Q  K	M	r	2	Correct	528	A
15	1	5	24	Y  Q  K	M	r	2	Correct	463	A
15	1	5	25	Y  Q  K	M	a	2	Correct	621	A
15	1	6	1	G  U  N  B  Q	H	n	0	Miss	0	A
15	1	6	2	G  U  N  B  Q	H	b	1	Correct	637	A
15	1	6	3	G  U  N  B  Q	H	n	1	Correct	572	A
15	1	6	4	G  U  N  B  Q	H	r	2	Incorrect	642	A
15	1	6	5	G  U  N  B  Q	H	n	1	Correct	382	A
15	1	6	6	G  U  N  B  Q	H	h	2	Incorrect	512	A
15	1	6	7	G  U  N  B  Q	H	a	2	Incorrect	550	A
15	1	6	8	G  U  N  B  Q	H	b	1	Correct	590	A
15	1	6	9	G  U  N  B  Q	H	q	1	Correct	660	A
15	1	6	10	G  U  N  B  Q	H	n	1	Correct	473	A
15	1	6	11	G  U  N  B  Q	H	k	2	Incorrect	723	A
15	1	6	12	G  U  N  B  Q	H	n	1	Correct	388	A
15	1	6	13	G  U  N  B  Q	H	u	2	Incorrect	516	A
15	1	6	14	G  U  N  B  Q	H	r	2	Incorrect	556	A
15	1	6	15	G  U  N  B  Q	H	t	2	Incorrect	805	A
15	1	6	16	G  U  N  B  Q	H	e	2	Incorrect	515	A
15	1	6	17	G  U  N  B  Q	H	q	1	Correct	540	A
15	1	6	18	G  U  N  B  Q	H	d	2	Incorrect	535	A
15	1	6	19	G  U  N  B  Q	H	q	1	Correct	350	A
15	1	6	20	G  U  N  B  Q	H	w	2	Incorrect	570	A
15	1	6	21	G  U  N  B  Q	H	r	2	Incorrect	685	A
15	1	6	22	G  U  N  B  Q	H	n	1	Correct	439	A
15	1	6	23	G  U  N  B  Q	H	j	2	Incorrect	508	A
15	1	6	24	G  U  N  B  Q	H	w	2	Incorrect	518	A
15	1	6	25	G  U  N  B  Q	H	q	1	Correct	393	A
15	2	1	1	U  K  D  M  R	H	u	1	Correct	615	S
15	2	1	2	U  K  D  M  R	H	r	1	Correct	772	S
15	2	1	3	U  K  D  M  R	H	r	1	Correct	784	S
15	2	1	4	U  K  D  M  R	H	n	1	Correct	565	S
15	2	1	5	U  K  D  M  R	H	e	1	Correct	658	S
15	2	1	6	U  K  D  M  R	H	m	1	Correct	598	S
15	2	1	7	U  K  D  M  R	H	d	2	Incorrect	659	S
15	2	1	8	U  K  D  M  R	H	h	0	Miss	0	S
15	2	1	9	U  K  D  M  R	H	y	2	Incorrect	660	S
15	2	1	10	U  K  D  M  R	H	b	2	Incorrect	520	S
15	2	1	11	U  K  D  M  R	H	m	1	Correct	636	S
15	2	1	12	U  K  D  M  R	H	t	2	Incorrect	632	S
15	2	1	13	U  K  D  M  R	H	n	2	Incorrect	581	S
15	2	1	14	U  K  D  M  R	H	k	0	Miss	0	S
15	2	1	15	U  K  D  M  R	H	t	1	Correct	533	S
15	2	1	16	U  K  D  M  R	H	a	2	Incorrect	713	S
15	2	1	17	U  K  D  M  R	H	r	2	Incorrect	526	S
15	2	1	18	U  K  D  M  R	H	k	1	Correct	443	S
15	2	1	19	U  K  D  M  R	H	y	2	Incorrect	607	S
15	2	1	20	U  K  D  M  R	H	t	1	Correct	476	S
15	2	1	21	U  K  D  M  R	H	r	1	Correct	657	S
15	2	1	22	U  K  D  M  R	H	j	2	Incorrect	565	S
15	2	1	23	U  K  D  M  R	H	a	2	Incorrect	890	S
15	2	1	24	U  K  D  M  R	H	g	2	Incorrect	590	S
15	2	1	25	U  K  D  M  R	H	k	1	Correct	387	S
15	2	2	1	B  W  M  J  R	H	t	2	Incorrect	573	S
15	2	2	2	B  W  M  J  R	H	g	2	Incorrect	658	S
15	2	2	3	B  W  M  J  R	H	u	2	Incorrect	478	S
15	2	2	4	B  W  M  J  R	H	y	2	Incorrect	539	S
15	2	2	5	B  W  M  J  R	H	m	1	Correct	432	S
15	2	2	6	B  W  M  J  R	H	g	2	Incorrect	508	S
15	2	2	7	B  W  M  J  R	H	g	2	Incorrect	481	S
15	2	2	8	B  W  M  J  R	H	w	1	Correct	694	S
15	2	2	9	B  W  M  J  R	H	r	2	Incorrect	634	S
15	2	2	10	B  W  M  J  R	H	u	2	Incorrect	623	S
15	2	2	11	B  W  M  J  R	H	t	2	Incorrect	580	S
15	2	2	12	B  W  M  J  R	H	m	1	Correct	712	S
15	2	2	13	B  W  M  J  R	H	b	2	Incorrect	676	S
15	2	2	14	B  W  M  J  R	H	r	1	Correct	473	S
15	2	2	15	B  W  M  J  R	H	b	1	Correct	381	S
15	2	2	16	B  W  M  J  R	H	h	2	Incorrect	586	S
15	2	2	17	B  W  M  J  R	H	b	1	Correct	390	S
15	2	2	18	B  W  M  J  R	H	n	2	Incorrect	658	S
15	2	2	19	B  W  M  J  R	H	r	1	Correct	423	S
15	2	2	20	B  W  M  J  R	H	h	1	Correct	547	S
15	2	2	21	B  W  M  J  R	H	n	2	Incorrect	856	S
15	2	2	22	B  W  M  J  R	H	j	1	Correct	740	S
15	2	2	23	B  W  M  J  R	H	t	2	Incorrect	553	S
15	2	2	24	B  W  M  J  R	H	w	1	Correct	421	S
15	2	2	25	B  W  M  J  R	H	j	1	Correct	578	S
15	2	3	1	W  F  A	M	q	2	Correct	605	S
15	2	3	2	W  F  A	M	g	2	Correct	537	S
15	2	3	3	W  F  A	M	e	2	Correct	558	S
15	2	3	4	W  F  A	M	f	1	Correct	506	S
15	2	3	5	W  F  A	M	f	1	Correct	439	S
15	2	3	6	W  F  A	M	w	1	Correct	516	S
15	2	3	7	W  F  A	M	a	1	Correct	448	S
15	2	3	8	W  F  A	M	r	2	Correct	644	S
15	2	3	9	W  F  A	M	d	2	Correct	640	S
15	2	3	10	W  F  A	M	h	2	Correct	613	S
15	2	3	11	W  F  A	M	w	1	Correct	458	S
15	2	3	12	W  F  A	M	e	2	Correct	422	S
15	2	3	13	W  F  A	M	a	1	Correct	450	S
15	2	3	14	W  F  A	M	w	1	Correct	534	S
15	2	3	15	W  F  A	M	g	2	Correct	523	S
15	2	3	16	W  F  A	M	d	2	Correct	471	S
15	2	3	17	W  F  A	M	w	1	Correct	427	S
15	2	3	18	W  F  A	M	y	2	Correct	415	S
15	2	3	19	W  F  A	M	r	2	Correct	612	S
15	2	3	20	W  F  A	M	w	1	Correct	400	S
15	2	3	21	W  F  A	M	f	1	Correct	621	S
15	2	3	22	W  F  A	M	n	2	Correct	585	S
15	2	3	23	W  F  A	M	w	1	Correct	357	S
15	2	3	24	W  F  A	M	m	2	Correct	538	S
15	2	3	25	W  F  A	M	a	1	Correct	566	S
15	2	4	1	E	L	e	1	Correct	640	S
15	2	4	2	E	L	m	2	Correct	532	S
15	2	4	3	E	L	q	2	Correct	369	S
15	2	4	4	E	L	e	1	Correct	366	S
15	2	4	5	E	L	j	2	Correct	394	S
15	2	4	6	E	L	y	2	Correct	366	S
15	2	4	7	E	L	e	1	Correct	490	S
15	2	4	8	E	L	j	2	Correct	351	S
15	2	4	9	E	L	e	1	Correct	348	S
15	2	4	10	E	L	m	2	Correct	304	S
15	2	4	11	E	L	f	2	Correct	445	S
15	2	4	12	E	L	t	2	Correct	425	S
15	2	4	13	E	L	t	2	Correct	349	S
15	2	4	14	E	L	e	1	Correct	394	S
15	2	4	15	E	L	k	2	Correct	359	S
15	2	4	16	E	L	e	1	Correct	347	S
15	2	4	17	E	L	q	2	Correct	359	S
15	2	4	18	E	L	t	2	Correct	444	S
15	2	4	19	E	L	d	2	Correct	481	S
15	2	4	20	E	L	a	2	Correct	485	S
15	2	4	21	E	L	e	1	Correct	449	S
15	2	4	22	E	L	y	2	Correct	518	S
15	2	4	23	E	L	k	2	Correct	690	S
15	2	4	24	E	L	e	1	Correct	375	S
15	2	4	25	E	L	e	1	Correct	396	S
15	2	5	1	Y	L	e	2	Correct	606	S
15	2	5	2	Y	L	a	2	Correct	482	S
15	2	5	3	Y	L	y	1	Correct	367	S
15	2	5	4	Y	L	h	2	Correct	436	S
15	2	5	5	Y	L	y	1	Correct	600	S
15	2	5	6	Y	L	y	1	Correct	453	S
15	2	5	7	Y	L	n	2	Correct	410	S
15	2	5	8	Y	L	j	2	Correct	398	S
15	2	5	9	Y	L	n	2	Correct	386	S
15	2	5	10	Y	L	y	2	Incorrect	318	S
15	2	5	11	Y	L	w	2	Correct	355	S
15	2	5	12	Y	L	a	2	Correct	455	S
15	2	5	13	Y	L	y	1	Correct	460	S
15	2	5	14	Y	L	g	2	Correct	401	S
15	2	5	15	Y	L	b	2	Correct	381	S
15	2	5	16	Y	L	y	1	Correct	450	S
15	2	5	17	Y	L	y	1	Correct	351	S
15	2	5	18	Y	L	y	1	Correct	467	S
15	2	5	19	Y	L	y	1	Correct	408	S
15	2	5	20	Y	L	q	2	Correct	453	S
15	2	5	21	Y	L	y	1	Correct	361	S
15	2	5	22	Y	L	u	2	Correct	366	S
15	2	5	23	Y	L	d	2	Correct	499	S
15	2	5	24	Y	L	t	2	Correct	415	S
15	2	5	25	Y	L	t	2	Correct	435	S
15	2	6	1	U  B  T	M	r	2	Correct	486	S
15	2	6	2	U  B  T	M	w	2	Correct	522	S
15	2	6	3	U  B  T	M	u	1	Correct	439	S
15	2	6	4	U  B  T	M	u	1	Correct	436	S
15	2	6	5	U  B  T	M	h	2	Correct	504	S
15	2	6	6	U  B  T	M	m	2	Correct	565	S
15	2	6	7	U  B  T	M	h	2	Correct	537	S
15	2	6	8	U  B  T	M	y	2	Correct	501	S
15	2	6	9	U  B  T	M	u	1	Correct	601	S
15	2	6	10	U  B  T	M	u	1	Correct	478	S
15	2	6	11	U  B  T	M	n	0	Miss	0	S
15	2	6	12	U  B  T	M	y	1	Incorrect	487	S
15	2	6	13	U  B  T	M	f	2	Correct	467	S
15	2	6	14	U  B  T	M	u	1	Correct	488	S
15	2	6	15	U  B  T	M	t	1	Correct	501	S
15	2	6	16	U  B  T	M	g	2	Correct	577	S
15	2	6	17	U  B  T	M	t	1	Correct	390	S
15	2	6	18	U  B  T	M	b	2	Incorrect	475	S
15	2	6	19	U  B  T	M	h	2	Correct	583	S
15	2	6	20	U  B  T	M	t	1	Correct	412	S
15	2	6	21	U  B  T	M	d	2	Correct	561	S
15	2	6	22	U  B  T	M	n	2	Correct	445	S
15	2	6	23	U  B  T	M	q	2	Correct	546	S
15	2	6	24	U  B  T	M	g	2	Correct	447	S
15	2	6	25	U  B  T	M	h	1	Incorrect	691	S
19	1	1	1	Q  D  B	M	y	2	Correct	860	A
19	1	1	2	Q  D  B	M	b	1	Correct	648	A
19	1	1	3	Q  D  B	M	f	2	Correct	516	A
19	1	1	4	Q  D  B	M	q	1	Correct	577	A
19	1	1	5	Q  D  B	M	q	1	Correct	430	A
19	1	1	6	Q  D  B	M	q	1	Correct	354	A
19	1	1	7	Q  D  B	M	w	2	Correct	431	A
19	1	1	8	Q  D  B	M	y	2	Correct	436	A
19	1	1	9	Q  D  B	M	d	1	Correct	472	A
19	1	1	10	Q  D  B	M	f	2	Correct	357	A
19	1	1	11	Q  D  B	M	d	1	Correct	665	A
19	1	1	12	Q  D  B	M	t	2	Correct	541	A
19	1	1	13	Q  D  B	M	q	1	Correct	530	A
19	1	1	14	Q  D  B	M	q	1	Correct	430	A
19	1	1	15	Q  D  B	M	d	2	Incorrect	499	A
19	1	1	16	Q  D  B	M	u	2	Correct	551	A
19	1	1	17	Q  D  B	M	d	1	Correct	555	A
19	1	1	18	Q  D  B	M	w	2	Correct	447	A
19	1	1	19	Q  D  B	M	q	1	Correct	452	A
19	1	1	20	Q  D  B	M	g	2	Correct	585	A
19	1	1	21	Q  D  B	M	q	1	Correct	485	A
19	1	1	22	Q  D  B	M	f	2	Correct	506	A
19	1	1	23	Q  D  B	M	r	2	Correct	518	A
19	1	1	24	Q  D  B	M	b	1	Correct	490	A
19	1	1	25	Q  D  B	M	b	1	Correct	559	A
19	1	2	1	H  J  T  E  W	H	e	0	Miss	0	A
19	1	2	2	H  J  T  E  W	H	u	2	Incorrect	695	A
19	1	2	3	H  J  T  E  W	H	f	2	Incorrect	780	A
19	1	2	4	H  J  T  E  W	H	y	2	Incorrect	640	A
19	1	2	5	H  J  T  E  W	H	j	1	Correct	621	A
19	1	2	6	H  J  T  E  W	H	h	1	Correct	506	A
19	1	2	7	H  J  T  E  W	H	u	2	Incorrect	766	A
19	1	2	8	H  J  T  E  W	H	w	1	Correct	338	A
19	1	2	9	H  J  T  E  W	H	b	2	Incorrect	503	A
19	1	2	10	H  J  T  E  W	H	y	2	Incorrect	556	A
19	1	2	11	H  J  T  E  W	H	y	2	Incorrect	376	A
19	1	2	12	H  J  T  E  W	H	e	1	Correct	525	A
19	1	2	13	H  J  T  E  W	H	d	2	Incorrect	737	A
19	1	2	14	H  J  T  E  W	H	a	2	Incorrect	741	A
19	1	2	15	H  J  T  E  W	H	h	1	Correct	625	A
19	1	2	16	H  J  T  E  W	H	e	1	Correct	685	A
19	1	2	17	H  J  T  E  W	H	m	2	Incorrect	465	A
19	1	2	18	H  J  T  E  W	H	n	2	Incorrect	461	A
19	1	2	19	H  J  T  E  W	H	e	1	Correct	513	A
19	1	2	20	H  J  T  E  W	H	d	2	Incorrect	494	A
19	1	2	21	H  J  T  E  W	H	h	1	Correct	498	A
19	1	2	22	H  J  T  E  W	H	b	2	Incorrect	535	A
19	1	2	23	H  J  T  E  W	H	q	1	Correct	380	A
19	1	2	24	H  J  T  E  W	H	h	1	Correct	376	A
19	1	2	25	H  J  T  E  W	H	f	2	Incorrect	612	A
19	1	3	1	H  A  G  D  K	H	r	2	Incorrect	623	A
19	1	3	2	H  A  G  D  K	H	k	1	Correct	604	A
19	1	3	3	H  A  G  D  K	H	k	1	Correct	440	A
19	1	3	4	H  A  G  D  K	H	b	2	Incorrect	501	A
19	1	3	5	H  A  G  D  K	H	u	2	Incorrect	505	A
19	1	3	6	H  A  G  D  K	H	h	1	Correct	357	A
19	1	3	7	H  A  G  D  K	H	h	1	Correct	369	A
19	1	3	8	H  A  G  D  K	H	r	2	Incorrect	518	A
19	1	3	9	H  A  G  D  K	H	e	2	Incorrect	602	A
19	1	3	10	H  A  G  D  K	H	t	2	Incorrect	935	A
19	1	3	11	H  A  G  D  K	H	u	2	Incorrect	539	A
19	1	3	12	H  A  G  D  K	H	h	1	Correct	456	A
19	1	3	13	H  A  G  D  K	H	r	2	Incorrect	557	A
19	1	3	14	H  A  G  D  K	H	h	1	Correct	505	A
19	1	3	15	H  A  G  D  K	H	u	2	Incorrect	525	A
19	1	3	16	H  A  G  D  K	H	y	2	Incorrect	466	A
19	1	3	17	H  A  G  D  K	H	q	2	Incorrect	495	A
19	1	3	18	H  A  G  D  K	H	t	0	Miss	0	A
19	1	3	19	H  A  G  D  K	H	m	2	Incorrect	608	A
19	1	3	20	H  A  G  D  K	H	f	2	Incorrect	693	A
19	1	3	21	H  A  G  D  K	H	h	1	Correct	521	A
19	1	3	22	H  A  G  D  K	H	u	2	Incorrect	590	A
19	1	3	23	H  A  G  D  K	H	q	2	Incorrect	626	A
19	1	3	24	H  A  G  D  K	H	b	2	Incorrect	502	A
19	1	3	25	H  A  G  D  K	H	b	2	Incorrect	434	A
19	1	4	1	F	L	n	2	Correct	588	A
19	1	4	2	F	L	f	1	Correct	344	A
19	1	4	3	F	L	f	1	Correct	341	A
19	1	4	4	F	L	f	1	Correct	338	A
19	1	4	5	F	L	f	1	Correct	294	A
19	1	4	6	F	L	f	1	Correct	267	A
19	1	4	7	F	L	k	2	Correct	352	A
19	1	4	8	F	L	u	2	Correct	300	A
19	1	4	9	F	L	d	2	Correct	305	A
19	1	4	10	F	L	f	1	Correct	381	A
19	1	4	11	F	L	f	1	Correct	329	A
19	1	4	12	F	L	w	2	Correct	350	A
19	1	4	13	F	L	f	1	Correct	363	A
19	1	4	14	F	L	a	2	Correct	351	A
19	1	4	15	F	L	y	2	Correct	403	A
19	1	4	16	F	L	f	1	Correct	376	A
19	1	4	17	F	L	n	2	Correct	476	A
19	1	4	18	F	L	f	1	Correct	481	A
19	1	4	19	F	L	w	2	Correct	349	A
19	1	4	20	F	L	u	2	Correct	354	A
19	1	4	21	F	L	n	2	Correct	414	A
19	1	4	22	F	L	d	2	Correct	426	A
19	1	4	23	F	L	f	1	Correct	383	A
19	1	4	24	F	L	f	1	Correct	348	A
19	1	4	25	F	L	q	2	Correct	360	A
19	1	5	1	Q	L	q	1	Correct	532	A
19	1	5	2	Q	L	q	1	Correct	272	A
19	1	5	3	Q	L	a	2	Correct	405	A
19	1	5	4	Q	L	q	1	Correct	410	A
19	1	5	5	Q	L	u	2	Correct	390	A
19	1	5	6	Q	L	d	2	Correct	402	A
19	1	5	7	Q	L	u	2	Correct	311	A
19	1	5	8	Q	L	q	1	Correct	356	A
19	1	5	9	Q	L	h	2	Correct	376	A
19	1	5	10	Q	L	d	2	Correct	348	A
19	1	5	11	Q	L	q	1	Correct	288	A
19	1	5	12	Q	L	q	1	Correct	365	A
19	1	5	13	Q	L	e	2	Correct	377	A
19	1	5	14	Q	L	q	1	Correct	430	A
19	1	5	15	Q	L	j	2	Correct	427	A
19	1	5	16	Q	L	j	1	Incorrect	399	A
19	1	5	17	Q	L	n	2	Correct	443	A
19	1	5	18	Q	L	q	1	Correct	464	A
19	1	5	19	Q	L	w	2	Correct	525	A
19	1	5	20	Q	L	q	1	Correct	313	A
19	1	5	21	Q	L	y	2	Correct	462	A
19	1	5	22	Q	L	q	1	Correct	482	A
19	1	5	23	Q	L	q	1	Correct	463	A
19	1	5	24	Q	L	k	2	Correct	507	A
19	1	5	25	Q	L	q	1	Correct	464	A
19	1	6	1	E  H  J	M	f	2	Correct	691	A
19	1	6	2	E  H  J	M	f	2	Correct	680	A
19	1	6	3	E  H  J	M	d	2	Correct	492	A
19	1	6	4	E  H  J	M	h	1	Correct	817	A
19	1	6	5	E  H  J	M	r	2	Correct	670	A
19	1	6	6	E  H  J	M	u	2	Correct	538	A
19	1	6	7	E  H  J	M	t	2	Correct	646	A
19	1	6	8	E  H  J	M	n	2	Correct	522	A
19	1	6	9	E  H  J	M	e	1	Correct	343	A
19	1	6	10	E  H  J	M	m	2	Correct	523	A
19	1	6	11	E  H  J	M	r	2	Correct	703	A
19	1	6	12	E  H  J	M	j	1	Correct	572	A
19	1	6	13	E  H  J	M	j	1	Correct	337	A
19	1	6	14	E  H  J	M	h	1	Correct	437	A
19	1	6	15	E  H  J	M	k	2	Correct	537	A
19	1	6	16	E  H  J	M	j	1	Correct	437	A
19	1	6	17	E  H  J	M	h	1	Correct	394	A
19	1	6	18	E  H  J	M	h	1	Correct	375	A
19	1	6	19	E  H  J	M	e	1	Correct	755	A
19	1	6	20	E  H  J	M	h	1	Correct	528	A
19	1	6	21	E  H  J	M	n	2	Correct	533	A
19	1	6	22	E  H  J	M	b	2	Correct	528	A
19	1	6	23	E  H  J	M	a	2	Correct	644	A
19	1	6	24	E  H  J	M	j	1	Correct	561	A
19	1	6	25	E  H  J	M	k	2	Correct	454	A
19	2	1	1	G	L	m	0	Miss	0	S
19	2	1	2	G	L	d	2	Correct	478	S
19	2	1	3	G	L	m	2	Correct	427	S
19	2	1	4	G	L	t	2	Correct	599	S
19	2	1	5	G	L	g	1	Correct	524	S
19	2	1	6	G	L	j	2	Correct	369	S
19	2	1	7	G	L	n	2	Correct	317	S
19	2	1	8	G	L	m	2	Correct	329	S
19	2	1	9	G	L	b	2	Correct	357	S
19	2	1	10	G	L	u	2	Correct	322	S
19	2	1	11	G	L	d	2	Correct	374	S
19	2	1	12	G	L	g	1	Correct	395	S
19	2	1	13	G	L	d	2	Correct	352	S
19	2	1	14	G	L	g	1	Correct	324	S
19	2	1	15	G	L	g	1	Correct	360	S
19	2	1	16	G	L	g	1	Correct	357	S
19	2	1	17	G	L	g	1	Correct	346	S
19	2	1	18	G	L	g	1	Correct	334	S
19	2	1	19	G	L	e	2	Correct	379	S
19	2	1	20	G	L	g	1	Correct	392	S
19	2	1	21	G	L	w	2	Correct	444	S
19	2	1	22	G	L	g	1	Correct	337	S
19	2	1	23	G	L	w	2	Correct	358	S
19	2	1	24	G	L	g	1	Correct	346	S
19	2	1	25	G	L	w	2	Correct	359	S
19	2	2	1	G  U  Y  A  E	H	g	1	Correct	426	S
19	2	2	2	G  U  Y  A  E	H	f	2	Correct	423	S
19	2	2	3	G  U  Y  A  E	H	g	1	Correct	443	S
19	2	2	4	G  U  Y  A  E	H	a	1	Correct	808	S
19	2	2	5	G  U  Y  A  E	H	e	1	Correct	413	S
19	2	2	6	G  U  Y  A  E	H	y	1	Correct	321	S
19	2	2	7	G  U  Y  A  E	H	m	2	Correct	397	S
19	2	2	8	G  U  Y  A  E	H	k	2	Correct	401	S
19	2	2	9	G  U  Y  A  E	H	a	1	Correct	549	S
19	2	2	10	G  U  Y  A  E	H	a	1	Correct	402	S
19	2	2	11	G  U  Y  A  E	H	y	1	Correct	607	S
19	2	2	12	G  U  Y  A  E	H	u	1	Correct	531	S
19	2	2	13	G  U  Y  A  E	H	y	1	Correct	448	S
19	2	2	14	G  U  Y  A  E	H	w	2	Correct	500	S
19	2	2	15	G  U  Y  A  E	H	n	2	Correct	376	S
19	2	2	16	G  U  Y  A  E	H	w	2	Correct	524	S
19	2	2	17	G  U  Y  A  E	H	n	2	Correct	417	S
19	2	2	18	G  U  Y  A  E	H	u	1	Correct	526	S
19	2	2	19	G  U  Y  A  E	H	q	2	Correct	890	S
19	2	2	20	G  U  Y  A  E	H	f	2	Correct	638	S
19	2	2	21	G  U  Y  A  E	H	a	1	Correct	354	S
19	2	2	22	G  U  Y  A  E	H	e	1	Correct	319	S
19	2	2	23	G  U  Y  A  E	H	y	1	Correct	339	S
19	2	2	24	G  U  Y  A  E	H	e	1	Correct	520	S
19	2	2	25	G  U  Y  A  E	H	y	1	Correct	349	S
19	2	3	1	J	L	w	2	Correct	376	S
19	2	3	2	J	L	e	2	Correct	348	S
19	2	3	3	J	L	j	1	Correct	377	S
19	2	3	4	J	L	j	1	Correct	309	S
19	2	3	5	J	L	e	2	Correct	386	S
19	2	3	6	J	L	f	2	Correct	471	S
19	2	3	7	J	L	f	2	Correct	339	S
19	2	3	8	J	L	h	2	Correct	431	S
19	2	3	9	J	L	j	1	Correct	420	S
19	2	3	10	J	L	j	1	Correct	353	S
19	2	3	11	J	L	m	2	Correct	341	S
19	2	3	12	J	L	j	1	Correct	322	S
19	2	3	13	J	L	j	1	Correct	350	S
19	2	3	14	J	L	h	2	Correct	362	S
19	2	3	15	J	L	j	1	Correct	359	S
19	2	3	16	J	L	j	1	Correct	316	S
19	2	3	17	J	L	n	2	Correct	320	S
19	2	3	18	J	L	j	1	Correct	332	S
19	2	3	19	J	L	a	2	Correct	432	S
19	2	3	20	J	L	j	1	Correct	428	S
19	2	3	21	J	L	j	1	Correct	321	S
19	2	3	22	J	L	a	2	Correct	350	S
19	2	3	23	J	L	g	2	Correct	466	S
19	2	3	24	J	L	n	2	Correct	375	S
19	2	3	25	J	L	y	2	Correct	443	S
19	2	4	1	B  Y  M	M	m	1	Correct	486	S
19	2	4	2	B  Y  M	M	g	2	Correct	482	S
19	2	4	3	B  Y  M	M	b	1	Correct	399	S
19	2	4	4	B  Y  M	M	h	2	Correct	363	S
19	2	4	5	B  Y  M	M	g	2	Correct	447	S
19	2	4	6	B  Y  M	M	m	1	Correct	579	S
19	2	4	7	B  Y  M	M	q	2	Correct	447	S
19	2	4	8	B  Y  M	M	q	1	Incorrect	427	S
19	2	4	9	B  Y  M	M	n	2	Correct	544	S
19	2	4	10	B  Y  M	M	g	2	Correct	557	S
19	2	4	11	B  Y  M	M	m	1	Correct	632	S
19	2	4	12	B  Y  M	M	y	1	Correct	597	S
19	2	4	13	B  Y  M	M	j	2	Correct	570	S
19	2	4	14	B  Y  M	M	q	2	Correct	518	S
19	2	4	15	B  Y  M	M	u	2	Correct	523	S
19	2	4	16	B  Y  M	M	f	2	Correct	399	S
19	2	4	17	B  Y  M	M	q	2	Correct	539	S
19	2	4	18	B  Y  M	M	e	2	Correct	560	S
19	2	4	19	B  Y  M	M	m	2	Incorrect	468	S
19	2	4	20	B  Y  M	M	u	2	Correct	584	S
19	2	4	21	B  Y  M	M	y	1	Correct	629	S
19	2	4	22	B  Y  M	M	b	1	Correct	497	S
19	2	4	23	B  Y  M	M	d	2	Correct	518	S
19	2	4	24	B  Y  M	M	b	1	Correct	515	S
19	2	4	25	B  Y  M	M	k	2	Correct	431	S
19	2	5	1	K  U  F  J  E	H	k	1	Correct	409	S
19	2	5	2	K  U  F  J  E	H	q	2	Correct	430	S
19	2	5	3	K  U  F  J  E	H	a	2	Correct	450	S
19	2	5	4	K  U  F  J  E	H	h	2	Correct	471	S
19	2	5	5	K  U  F  J  E	H	u	1	Correct	539	S
19	2	5	6	K  U  F  J  E	H	q	2	Correct	888	S
19	2	5	7	K  U  F  J  E	H	r	2	Correct	541	S
19	2	5	8	K  U  F  J  E	H	q	2	Correct	457	S
19	2	5	9	K  U  F  J  E	H	a	2	Correct	486	S
19	2	5	10	K  U  F  J  E	H	f	1	Correct	531	S
19	2	5	11	K  U  F  J  E	H	k	1	Correct	391	S
19	2	5	12	K  U  F  J  E	H	q	2	Correct	531	S
19	2	5	13	K  U  F  J  E	H	k	1	Correct	384	S
19	2	5	14	K  U  F  J  E	H	w	2	Correct	484	S
19	2	5	15	K  U  F  J  E	H	e	1	Correct	489	S
19	2	5	16	K  U  F  J  E	H	w	2	Correct	686	S
19	2	5	17	K  U  F  J  E	H	q	2	Correct	458	S
19	2	5	18	K  U  F  J  E	H	h	2	Correct	631	S
19	2	5	19	K  U  F  J  E	H	a	2	Correct	436	S
19	2	5	20	K  U  F  J  E	H	b	2	Correct	416	S
19	2	5	21	K  U  F  J  E	H	j	1	Correct	533	S
19	2	5	22	K  U  F  J  E	H	m	2	Correct	466	S
19	2	5	23	K  U  F  J  E	H	d	2	Correct	422	S
19	2	5	24	K  U  F  J  E	H	w	2	Correct	419	S
19	2	5	25	K  U  F  J  E	H	d	2	Correct	431	S
19	2	6	1	D  R  K	M	k	1	Correct	586	S
19	2	6	2	D  R  K	M	h	2	Correct	494	S
19	2	6	3	D  R  K	M	k	1	Correct	562	S
19	2	6	4	D  R  K	M	d	1	Correct	407	S
19	2	6	5	D  R  K	M	u	2	Correct	467	S
19	2	6	6	D  R  K	M	d	1	Correct	424	S
19	2	6	7	D  R  K	M	f	2	Correct	493	S
19	2	6	8	D  R  K	M	j	2	Correct	529	S
19	2	6	9	D  R  K	M	d	1	Correct	454	S
19	2	6	10	D  R  K	M	q	2	Correct	523	S
19	2	6	11	D  R  K	M	a	2	Correct	495	S
19	2	6	12	D  R  K	M	r	1	Correct	395	S
19	2	6	13	D  R  K	M	k	1	Correct	511	S
19	2	6	14	D  R  K	M	r	1	Correct	516	S
19	2	6	15	D  R  K	M	d	1	Correct	480	S
19	2	6	16	D  R  K	M	g	2	Correct	469	S
19	2	6	17	D  R  K	M	h	2	Correct	418	S
19	2	6	18	D  R  K	M	h	2	Correct	406	S
19	2	6	19	D  R  K	M	y	2	Correct	451	S
19	2	6	20	D  R  K	M	d	1	Correct	368	S
19	2	6	21	D  R  K	M	e	2	Correct	428	S
19	2	6	22	D  R  K	M	t	2	Correct	408	S
19	2	6	23	D  R  K	M	d	1	Correct	357	S
19	2	6	24	D  R  K	M	r	1	Correct	481	S
19	2	6	25	D  R  K	M	t	2	Correct	430	S
2	1	1	1	T	L	t	0	Miss	0	S
2	1	1	2	T	L	t	0	Miss	0	S
2	1	1	3	T	L	q	0	Miss	0	S
2	1	1	4	T	L	t	0	Miss	0	S
2	1	1	5	T	L	t	0	Miss	0	S
2	1	1	6	T	L	w	0	Miss	0	S
2	1	1	7	T	L	f	0	Miss	0	S
2	1	1	8	T	L	m	0	Miss	0	S
2	1	1	9	T	L	j	0	Miss	0	S
2	1	1	10	T	L	t	0	Miss	0	S
2	1	1	11	T	L	t	0	Miss	0	S
2	1	1	12	T	L	t	0	Miss	0	S
2	1	1	13	T	L	h	0	Miss	0	S
2	1	1	14	T	L	t	0	Miss	0	S
2	1	1	15	T	L	w	0	Miss	0	S
2	1	1	16	T	L	t	0	Miss	0	S
2	1	1	17	T	L	g	0	Miss	0	S
2	1	1	18	T	L	t	0	Miss	0	S
2	1	1	19	T	L	j	0	Miss	0	S
2	1	1	20	T	L	d	0	Miss	0	S
2	1	1	21	T	L	m	0	Miss	0	S
2	1	1	22	T	L	y	0	Miss	0	S
2	1	1	23	T	L	e	0	Miss	0	S
2	1	1	24	T	L	t	1	Correct	385	S
2	1	1	25	T	L	w	0	Miss	0	S
2	1	2	1	T	L	t	1	Correct	953	S
2	1	2	2	T	L	n	2	Correct	361	S
2	1	2	3	T	L	q	2	Correct	349	S
2	1	2	4	T	L	f	2	Correct	539	S
2	1	2	5	T	L	t	1	Correct	623	S
2	1	2	6	T	L	n	2	Correct	373	S
2	1	2	7	T	L	j	2	Correct	506	S
2	1	2	8	T	L	f	2	Correct	461	S
2	1	2	9	T	L	t	1	Correct	470	S
2	1	2	10	T	L	t	1	Correct	412	S
2	1	2	11	T	L	n	2	Correct	467	S
2	1	2	12	T	L	t	1	Correct	443	S
2	1	2	13	T	L	j	2	Correct	470	S
2	1	2	14	T	L	h	2	Correct	458	S
2	1	2	15	T	L	d	2	Correct	410	S
2	1	2	16	T	L	y	2	Correct	421	S
2	1	2	17	T	L	g	2	Correct	464	S
2	1	2	18	T	L	t	2	Incorrect	344	S
2	1	2	19	T	L	r	2	Correct	422	S
2	1	2	20	T	L	r	2	Correct	398	S
2	1	2	21	T	L	t	1	Correct	498	S
2	1	2	22	T	L	j	2	Correct	390	S
2	1	2	23	T	L	t	1	Correct	512	S
2	1	2	24	T	L	q	2	Correct	611	S
2	1	2	25	T	L	t	1	Correct	576	S
2	1	3	1	R  U  B  A  Y	H	j	0	Miss	0	S
2	1	3	2	R  U  B  A  Y	H	f	0	Miss	0	S
2	1	3	3	R  U  B  A  Y	H	d	0	Miss	0	S
2	1	3	4	R  U  B  A  Y	H	m	2	Incorrect	473	S
2	1	3	5	R  U  B  A  Y	H	y	2	Incorrect	393	S
2	1	3	6	R  U  B  A  Y	H	u	1	Correct	639	S
2	1	3	7	R  U  B  A  Y	H	h	2	Incorrect	762	S
2	1	3	8	R  U  B  A  Y	H	h	2	Incorrect	564	S
2	1	3	9	R  U  B  A  Y	H	h	2	Incorrect	483	S
2	1	3	10	R  U  B  A  Y	H	b	1	Correct	841	S
2	1	3	11	R  U  B  A  Y	H	m	2	Incorrect	784	S
2	1	3	12	R  U  B  A  Y	H	b	1	Correct	681	S
2	1	3	13	R  U  B  A  Y	H	h	2	Incorrect	719	S
2	1	3	14	R  U  B  A  Y	H	d	2	Incorrect	690	S
2	1	3	15	R  U  B  A  Y	H	d	2	Incorrect	497	S
2	1	3	16	R  U  B  A  Y	H	u	1	Correct	625	S
2	1	3	17	R  U  B  A  Y	H	r	1	Correct	568	S
2	1	3	18	R  U  B  A  Y	H	q	2	Incorrect	611	S
2	1	3	19	R  U  B  A  Y	H	r	1	Correct	548	S
2	1	3	20	R  U  B  A  Y	H	h	2	Incorrect	513	S
2	1	3	21	R  U  B  A  Y	H	y	2	Incorrect	792	S
2	1	3	22	R  U  B  A  Y	H	q	2	Incorrect	892	S
2	1	3	23	R  U  B  A  Y	H	r	1	Correct	559	S
2	1	3	24	R  U  B  A  Y	H	n	0	Miss	0	S
2	1	3	25	R  U  B  A  Y	H	w	2	Incorrect	635	S
2	1	4	1	B  G  M  Q  W	H	u	0	Miss	0	S
2	1	4	2	B  G  M  Q  W	H	f	2	Incorrect	562	S
2	1	4	3	B  G  M  Q  W	H	t	2	Incorrect	516	S
2	1	4	4	B  G  M  Q  W	H	d	2	Incorrect	593	S
2	1	4	5	B  G  M  Q  W	H	u	2	Incorrect	963	S
2	1	4	6	B  G  M  Q  W	H	y	2	Incorrect	529	S
2	1	4	7	B  G  M  Q  W	H	f	2	Incorrect	511	S
2	1	4	8	B  G  M  Q  W	H	y	2	Incorrect	486	S
2	1	4	9	B  G  M  Q  W	H	m	0	Miss	0	S
2	1	4	10	B  G  M  Q  W	H	e	2	Incorrect	449	S
2	1	4	11	B  G  M  Q  W	H	f	2	Incorrect	798	S
2	1	4	12	B  G  M  Q  W	H	q	1	Correct	739	S
2	1	4	13	B  G  M  Q  W	H	f	2	Incorrect	558	S
2	1	4	14	B  G  M  Q  W	H	q	1	Correct	719	S
2	1	4	15	B  G  M  Q  W	H	w	1	Correct	550	S
2	1	4	16	B  G  M  Q  W	H	q	1	Correct	756	S
2	1	4	17	B  G  M  Q  W	H	w	1	Correct	451	S
2	1	4	18	B  G  M  Q  W	H	q	1	Correct	483	S
2	1	4	19	B  G  M  Q  W	H	t	2	Incorrect	618	S
2	1	4	20	B  G  M  Q  W	H	t	1	Correct	773	S
2	1	4	21	B  G  M  Q  W	H	r	0	Miss	0	S
2	1	4	22	B  G  M  Q  W	H	d	2	Incorrect	697	S
2	1	4	23	B  G  M  Q  W	H	b	1	Correct	628	S
2	1	4	24	B  G  M  Q  W	H	b	1	Correct	458	S
2	1	4	25	B  G  M  Q  W	H	r	2	Incorrect	805	S
2	1	5	1	U  R  K	M	f	2	Correct	588	S
2	1	5	2	U  R  K	M	n	2	Correct	682	S
2	1	5	3	U  R  K	M	d	2	Correct	669	S
2	1	5	4	U  R  K	M	d	2	Correct	477	S
2	1	5	5	U  R  K	M	u	1	Correct	481	S
2	1	5	6	U  R  K	M	k	1	Correct	778	S
2	1	5	7	U  R  K	M	f	2	Correct	608	S
2	1	5	8	U  R  K	M	h	2	Correct	719	S
2	1	5	9	U  R  K	M	u	1	Correct	549	S
2	1	5	10	U  R  K	M	r	1	Correct	514	S
2	1	5	11	U  R  K	M	m	2	Correct	433	S
2	1	5	12	U  R  K	M	n	2	Correct	837	S
2	1	5	13	U  R  K	M	b	2	Correct	610	S
2	1	5	14	U  R  K	M	n	2	Correct	744	S
2	1	5	15	U  R  K	M	f	2	Correct	495	S
2	1	5	16	U  R  K	M	u	1	Correct	538	S
2	1	5	17	U  R  K	M	h	2	Correct	492	S
2	1	5	18	U  R  K	M	y	2	Correct	575	S
2	1	5	19	U  R  K	M	m	2	Correct	573	S
2	1	5	20	U  R  K	M	w	2	Correct	752	S
2	1	5	21	U  R  K	M	j	2	Correct	498	S
2	1	5	22	U  R  K	M	k	1	Correct	440	S
2	1	5	23	U  R  K	M	u	1	Correct	483	S
2	1	5	24	U  R  K	M	t	2	Correct	482	S
2	1	5	25	U  R  K	M	r	1	Correct	548	S
2	1	6	1	G  A  Q	M	a	1	Correct	505	S
2	1	6	2	G  A  Q	M	f	2	Correct	414	S
2	1	6	3	G  A  Q	M	d	2	Correct	604	S
2	1	6	4	G  A  Q	M	r	2	Correct	693	S
2	1	6	5	G  A  Q	M	h	2	Correct	545	S
2	1	6	6	G  A  Q	M	q	1	Correct	464	S
2	1	6	7	G  A  Q	M	t	2	Correct	638	S
2	1	6	8	G  A  Q	M	q	1	Correct	603	S
2	1	6	9	G  A  Q	M	j	2	Correct	859	S
2	1	6	10	G  A  Q	M	g	1	Correct	836	S
2	1	6	11	G  A  Q	M	g	1	Correct	531	S
2	1	6	12	G  A  Q	M	a	1	Correct	529	S
2	1	6	13	G  A  Q	M	j	2	Correct	506	S
2	1	6	14	G  A  Q	M	m	2	Correct	875	S
2	1	6	15	G  A  Q	M	u	2	Correct	559	S
2	1	6	16	G  A  Q	M	u	2	Correct	500	S
2	1	6	17	G  A  Q	M	a	1	Correct	656	S
2	1	6	18	G  A  Q	M	e	2	Correct	779	S
2	1	6	19	G  A  Q	M	q	1	Correct	666	S
2	1	6	20	G  A  Q	M	r	2	Correct	674	S
2	1	6	21	G  A  Q	M	e	2	Correct	606	S
2	1	6	22	G  A  Q	M	r	2	Correct	582	S
2	1	6	23	G  A  Q	M	b	2	Correct	625	S
2	1	6	24	G  A  Q	M	a	1	Correct	455	S
2	1	6	25	G  A  Q	M	r	2	Correct	532	S
2	2	1	1	H  J  D	M	q	0	Miss	0	A
2	2	1	2	H  J  D	M	e	2	Correct	593.17	A
2	2	1	3	H  J  D	M	n	2	Correct	487	A
2	2	1	4	H  J  D	M	w	2	Correct	499	A
2	2	1	5	H  J  D	M	d	1	Correct	527	A
2	2	1	6	H  J  D	M	d	1	Correct	420	A
2	2	1	7	H  J  D	M	y	2	Correct	505	A
2	2	1	8	H  J  D	M	w	2	Correct	541	A
2	2	1	9	H  J  D	M	u	2	Correct	482	A
2	2	1	10	H  J  D	M	b	2	Correct	694	A
2	2	1	11	H  J  D	M	g	0	Miss	0	A
2	2	1	12	H  J  D	M	d	1	Correct	576	A
2	2	1	13	H  J  D	M	j	2	Incorrect	500	A
2	2	1	14	H  J  D	M	h	1	Correct	480	A
2	2	1	15	H  J  D	M	n	2	Correct	581	A
2	2	1	16	H  J  D	M	y	2	Correct	498	A
2	2	1	17	H  J  D	M	g	2	Correct	918	A
2	2	1	18	H  J  D	M	m	2	Correct	611	A
2	2	1	19	H  J  D	M	h	1	Correct	824	A
2	2	1	20	H  J  D	M	y	2	Correct	500	A
2	2	1	21	H  J  D	M	e	2	Correct	521	A
2	2	1	22	H  J  D	M	b	2	Correct	525	A
2	2	1	23	H  J  D	M	k	2	Correct	546	A
2	2	1	24	H  J  D	M	m	2	Correct	543	A
2	2	1	25	H  J  D	M	m	2	Correct	363	A
2	2	2	1	Y  R  T  N  D	H	t	1	Correct	967	A
2	2	2	2	Y  R  T  N  D	H	e	2	Incorrect	723	A
2	2	2	3	Y  R  T  N  D	H	a	2	Incorrect	784	A
2	2	2	4	Y  R  T  N  D	H	w	2	Incorrect	629	A
2	2	2	5	Y  R  T  N  D	H	b	2	Incorrect	625	A
2	2	2	6	Y  R  T  N  D	H	u	2	Incorrect	454	A
2	2	2	7	Y  R  T  N  D	H	w	2	Incorrect	387	A
2	2	2	8	Y  R  T  N  D	H	u	2	Incorrect	503	A
2	2	2	9	Y  R  T  N  D	H	t	1	Correct	476	A
2	2	2	10	Y  R  T  N  D	H	h	2	Incorrect	576	A
2	2	2	11	Y  R  T  N  D	H	q	2	Incorrect	557	A
2	2	2	12	Y  R  T  N  D	H	u	2	Incorrect	560	A
2	2	2	13	Y  R  T  N  D	H	b	2	Incorrect	484	A
2	2	2	14	Y  R  T  N  D	H	w	2	Incorrect	457	A
2	2	2	15	Y  R  T  N  D	H	y	2	Incorrect	550	A
2	2	2	16	Y  R  T  N  D	H	t	1	Correct	738	A
2	2	2	17	Y  R  T  N  D	H	t	1	Correct	543	A
2	2	2	18	Y  R  T  N  D	H	g	2	Incorrect	604	A
2	2	2	19	Y  R  T  N  D	H	b	2	Incorrect	664	A
2	2	2	20	Y  R  T  N  D	H	q	2	Incorrect	645	A
2	2	2	21	Y  R  T  N  D	H	b	2	Incorrect	530	A
2	2	2	22	Y  R  T  N  D	H	f	2	Incorrect	662	A
2	2	2	23	Y  R  T  N  D	H	w	2	Incorrect	626	A
2	2	2	24	Y  R  T  N  D	H	w	2	Incorrect	615	A
2	2	2	25	Y  R  T  N  D	H	u	2	Incorrect	627	A
2	2	3	1	G  H  J  R  U	H	a	2	Incorrect	878	A
2	2	3	2	G  H  J  R  U	H	u	2	Incorrect	587	A
2	2	3	3	G  H  J  R  U	H	h	1	Correct	511	A
2	2	3	4	G  H  J  R  U	H	j	2	Incorrect	963	A
2	2	3	5	G  H  J  R  U	H	y	0	Miss	0	A
2	2	3	6	G  H  J  R  U	H	y	2	Incorrect	364	A
2	2	3	7	G  H  J  R  U	H	g	1	Correct	529	A
2	2	3	8	G  H  J  R  U	H	b	2	Incorrect	453	A
2	2	3	9	G  H  J  R  U	H	d	2	Incorrect	450	A
2	2	3	10	G  H  J  R  U	H	u	1	Correct	655	A
2	2	3	11	G  H  J  R  U	H	a	2	Incorrect	819	A
2	2	3	12	G  H  J  R  U	H	d	2	Incorrect	736	A
2	2	3	13	G  H  J  R  U	H	u	1	Correct	524	A
2	2	3	14	G  H  J  R  U	H	q	2	Incorrect	600	A
2	2	3	15	G  H  J  R  U	H	j	1	Correct	661	A
2	2	3	16	G  H  J  R  U	H	q	2	Incorrect	649	A
2	2	3	17	G  H  J  R  U	H	t	2	Incorrect	614	A
2	2	3	18	G  H  J  R  U	H	a	2	Incorrect	546	A
2	2	3	19	G  H  J  R  U	H	a	2	Incorrect	446	A
2	2	3	20	G  H  J  R  U	H	h	1	Correct	627	A
2	2	3	21	G  H  J  R  U	H	g	1	Correct	775	A
2	2	3	22	G  H  J  R  U	H	j	0	Miss	0	A
2	2	3	23	G  H  J  R  U	H	a	2	Incorrect	888	A
2	2	3	24	G  H  J  R  U	H	g	1	Correct	629	A
2	2	3	25	G  H  J  R  U	H	n	2	Incorrect	497	A
2	2	4	1	F  U  J	M	u	1	Correct	668	A
2	2	4	2	F  U  J	M	u	1	Correct	545	A
2	2	4	3	F  U  J	M	m	2	Correct	533	A
2	2	4	4	F  U  J	M	g	2	Correct	650	A
2	2	4	5	F  U  J	M	a	2	Correct	663	A
2	2	4	6	F  U  J	M	w	2	Correct	435	A
2	2	4	7	F  U  J	M	w	2	Correct	376	A
2	2	4	8	F  U  J	M	j	1	Correct	684	A
2	2	4	9	F  U  J	M	t	2	Correct	640	A
2	2	4	10	F  U  J	M	r	2	Correct	517	A
2	2	4	11	F  U  J	M	a	2	Correct	585	A
2	2	4	12	F  U  J	M	j	1	Correct	629	A
2	2	4	13	F  U  J	M	r	2	Correct	546	A
2	2	4	14	F  U  J	M	a	2	Correct	750	A
2	2	4	15	F  U  J	M	k	2	Correct	571	A
2	2	4	16	F  U  J	M	q	2	Correct	560	A
2	2	4	17	F  U  J	M	t	2	Correct	596	A
2	2	4	18	F  U  J	M	f	1	Correct	561	A
2	2	4	19	F  U  J	M	j	2	Incorrect	614	A
2	2	4	20	F  U  J	M	e	2	Correct	538	A
2	2	4	21	F  U  J	M	a	2	Correct	494	A
2	2	4	22	F  U  J	M	u	1	Correct	483	A
2	2	4	23	F  U  J	M	n	0	Miss	0	A
2	2	4	24	F  U  J	M	g	2	Correct	524	A
2	2	4	25	F  U  J	M	w	2	Correct	481	A
2	2	5	1	W	L	n	2	Correct	580	A
2	2	5	2	W	L	t	2	Correct	425	A
2	2	5	3	W	L	e	2	Correct	301	A
2	2	5	4	W	L	b	2	Correct	234	A
2	2	5	5	W	L	w	1	Correct	527	A
2	2	5	6	W	L	w	1	Correct	371	A
2	2	5	7	W	L	w	1	Correct	391	A
2	2	5	8	W	L	q	2	Correct	468	A
2	2	5	9	W	L	w	1	Correct	360	A
2	2	5	10	W	L	b	2	Correct	485	A
2	2	5	11	W	L	b	2	Correct	449	A
2	2	5	12	W	L	w	1	Correct	437	A
2	2	5	13	W	L	w	1	Correct	466	A
2	2	5	14	W	L	b	2	Correct	415	A
2	2	5	15	W	L	w	1	Correct	490	A
2	2	5	16	W	L	m	2	Correct	735	A
2	2	5	17	W	L	g	2	Correct	636	A
2	2	5	18	W	L	h	2	Correct	424	A
2	2	5	19	W	L	q	2	Correct	516	A
2	2	5	20	W	L	r	2	Correct	441	A
2	2	5	21	W	L	r	2	Correct	262	A
2	2	5	22	W	L	w	1	Correct	434	A
2	2	5	23	W	L	a	2	Correct	759	A
2	2	5	24	W	L	w	1	Correct	516	A
2	2	5	25	W	L	w	1	Correct	464	A
2	2	6	1	Q	L	m	2	Correct	459	A
2	2	6	2	Q	L	y	2	Correct	400	A
2	2	6	3	Q	L	e	2	Correct	324	A
2	2	6	4	Q	L	q	2	Incorrect	351	A
2	2	6	5	Q	L	n	2	Correct	267	A
2	2	6	6	Q	L	q	1	Correct	464	A
2	2	6	7	Q	L	q	1	Correct	397	A
2	2	6	8	Q	L	k	2	Correct	441	A
2	2	6	9	Q	L	m	2	Correct	413	A
2	2	6	10	Q	L	q	1	Correct	490	A
2	2	6	11	Q	L	n	2	Correct	622	A
2	2	6	12	Q	L	q	1	Correct	547	A
2	2	6	13	Q	L	y	0	Miss	0	A
2	2	6	14	Q	L	q	1	Correct	540	A
2	2	6	15	Q	L	f	2	Correct	416	A
2	2	6	16	Q	L	q	1	Correct	484	A
2	2	6	17	Q	L	u	2	Correct	688	A
2	2	6	18	Q	L	j	2	Correct	572	A
2	2	6	19	Q	L	y	2	Correct	577	A
2	2	6	20	Q	L	q	1	Correct	814	A
2	2	6	21	Q	L	q	1	Correct	474	A
2	2	6	22	Q	L	n	2	Correct	583	A
2	2	6	23	Q	L	r	2	Correct	844	A
2	2	6	24	Q	L	q	1	Correct	568	A
2	2	6	25	Q	L	q	1	Correct	669	A
20	1	1	1	J	L	h	0	Miss	0	S
20	1	1	2	J	L	a	0	Miss	0	S
20	1	1	3	J	L	y	0	Miss	0	S
20	1	1	4	J	L	a	0	Miss	0	S
20	1	1	5	J	L	j	0	Miss	0	S
20	1	1	6	J	L	j	0	Miss	0	S
20	1	1	7	J	L	y	0	Miss	0	S
20	1	1	8	J	L	j	0	Miss	0	S
20	1	1	9	J	L	b	0	Miss	0	S
20	1	1	10	J	L	h	0	Miss	0	S
20	1	1	11	J	L	h	0	Miss	0	S
20	1	1	12	J	L	w	0	Miss	0	S
20	1	1	13	J	L	u	0	Miss	0	S
20	1	1	14	J	L	f	0	Miss	0	S
20	1	1	15	J	L	j	0	Miss	0	S
20	1	1	16	J	L	d	0	Miss	0	S
20	1	1	17	J	L	e	0	Miss	0	S
20	1	1	18	J	L	j	0	Miss	0	S
20	1	1	19	J	L	m	0	Miss	0	S
20	1	1	20	J	L	j	0	Miss	0	S
20	1	1	21	J	L	j	0	Miss	0	S
20	1	1	22	J	L	h	0	Miss	0	S
20	1	1	23	J	L	d	0	Miss	0	S
20	1	1	24	J	L	b	0	Miss	0	S
20	1	1	25	J	L	j	0	Miss	0	S
20	1	2	1	N  K  H  E  F	H	d	0	Miss	0	S
20	1	2	2	N  K  H  E  F	H	n	0	Miss	0	S
20	1	2	3	N  K  H  E  F	H	q	0	Miss	0	S
20	1	2	4	N  K  H  E  F	H	w	0	Miss	0	S
20	1	2	5	N  K  H  E  F	H	m	0	Miss	0	S
20	1	2	6	N  K  H  E  F	H	k	0	Miss	0	S
20	1	2	7	N  K  H  E  F	H	d	0	Miss	0	S
20	1	2	8	N  K  H  E  F	H	k	0	Miss	0	S
20	1	2	9	N  K  H  E  F	H	q	0	Miss	0	S
20	1	2	10	N  K  H  E  F	H	k	0	Miss	0	S
20	1	2	11	N  K  H  E  F	H	b	0	Miss	0	S
20	1	2	12	N  K  H  E  F	H	q	0	Miss	0	S
20	1	2	13	N  K  H  E  F	H	k	0	Miss	0	S
20	1	2	14	N  K  H  E  F	H	m	0	Miss	0	S
20	1	2	15	N  K  H  E  F	H	q	0	Miss	0	S
20	1	2	16	N  K  H  E  F	H	t	0	Miss	0	S
20	1	2	17	N  K  H  E  F	H	h	0	Miss	0	S
20	1	2	18	N  K  H  E  F	H	h	0	Miss	0	S
20	1	2	19	N  K  H  E  F	H	g	0	Miss	0	S
20	1	2	20	N  K  H  E  F	H	n	0	Miss	0	S
20	1	2	21	N  K  H  E  F	H	k	0	Miss	0	S
20	1	2	22	N  K  H  E  F	H	f	0	Miss	0	S
20	1	2	23	N  K  H  E  F	H	f	0	Miss	0	S
20	1	2	24	N  K  H  E  F	H	m	0	Miss	0	S
20	1	2	25	N  K  H  E  F	H	k	0	Miss	0	S
20	1	3	1	K  J  A	M	k	0	Miss	0	S
20	1	3	2	K  J  A	M	r	0	Miss	0	S
20	1	3	3	K  J  A	M	j	0	Miss	0	S
20	1	3	4	K  J  A	M	e	0	Miss	0	S
20	1	3	5	K  J  A	M	y	0	Miss	0	S
20	1	3	6	K  J  A	M	u	0	Miss	0	S
20	1	3	7	K  J  A	M	a	0	Miss	0	S
20	1	3	8	K  J  A	M	n	0	Miss	0	S
20	1	3	9	K  J  A	M	k	0	Miss	0	S
20	1	3	10	K  J  A	M	g	0	Miss	0	S
20	1	3	11	K  J  A	M	j	0	Miss	0	S
20	1	3	12	K  J  A	M	w	0	Miss	0	S
20	1	3	13	K  J  A	M	q	0	Miss	0	S
20	1	3	14	K  J  A	M	j	0	Miss	0	S
20	1	3	15	K  J  A	M	e	0	Miss	0	S
20	1	3	16	K  J  A	M	k	0	Miss	0	S
20	1	3	17	K  J  A	M	n	0	Miss	0	S
20	1	3	18	K  J  A	M	a	1	Correct	872	S
20	1	3	19	K  J  A	M	d	2	Correct	716	S
20	1	3	20	K  J  A	M	a	2	Incorrect	729	S
20	1	3	21	K  J  A	M	y	2	Correct	894	S
20	1	3	22	K  J  A	M	y	2	Correct	770	S
20	1	3	23	K  J  A	M	a	1	Correct	855	S
20	1	3	24	K  J  A	M	b	2	Correct	955	S
20	1	3	25	K  J  A	M	k	1	Correct	935	S
20	1	4	1	B	L	w	2	Correct	843	S
20	1	4	2	B	L	k	2	Correct	759	S
20	1	4	3	B	L	b	1	Correct	564	S
20	1	4	4	B	L	b	1	Correct	625	S
20	1	4	5	B	L	b	1	Correct	621	S
20	1	4	6	B	L	d	2	Correct	641	S
20	1	4	7	B	L	b	1	Correct	701	S
20	1	4	8	B	L	e	2	Correct	818	S
20	1	4	9	B	L	q	2	Correct	639	S
20	1	4	10	B	L	b	1	Correct	595	S
20	1	4	11	B	L	b	1	Correct	568	S
20	1	4	12	B	L	d	2	Correct	548	S
20	1	4	13	B	L	k	2	Correct	737	S
20	1	4	14	B	L	m	2	Correct	526	S
20	1	4	15	B	L	g	2	Correct	826	S
20	1	4	16	B	L	w	2	Correct	775	S
20	1	4	17	B	L	b	1	Correct	731	S
20	1	4	18	B	L	b	1	Correct	432	S
20	1	4	19	B	L	e	2	Correct	708	S
20	1	4	20	B	L	b	1	Correct	729	S
20	1	4	21	B	L	h	2	Correct	654	S
20	1	4	22	B	L	k	2	Correct	586	S
20	1	4	23	B	L	b	1	Correct	693	S
20	1	4	24	B	L	q	2	Correct	706	S
20	1	4	25	B	L	y	2	Correct	599	S
20	1	5	1	N  A  W  T  Q	H	w	0	Miss	0	S
20	1	5	2	N  A  W  T  Q	H	n	1	Correct	655	S
20	1	5	3	N  A  W  T  Q	H	q	1	Correct	715	S
20	1	5	4	N  A  W  T  Q	H	t	1	Correct	472	S
20	1	5	5	N  A  W  T  Q	H	j	2	Incorrect	765	S
20	1	5	6	N  A  W  T  Q	H	j	2	Incorrect	697	S
20	1	5	7	N  A  W  T  Q	H	d	2	Incorrect	781	S
20	1	5	8	N  A  W  T  Q	H	n	1	Correct	834	S
20	1	5	9	N  A  W  T  Q	H	n	1	Correct	423	S
20	1	5	10	N  A  W  T  Q	H	u	2	Incorrect	675	S
20	1	5	11	N  A  W  T  Q	H	k	0	Miss	0	S
20	1	5	12	N  A  W  T  Q	H	u	0	Miss	0	S
20	1	5	13	N  A  W  T  Q	H	b	1	Correct	921	S
20	1	5	14	N  A  W  T  Q	H	n	1	Correct	766	S
20	1	5	15	N  A  W  T  Q	H	n	1	Correct	618	S
20	1	5	16	N  A  W  T  Q	H	d	2	Incorrect	614	S
20	1	5	17	N  A  W  T  Q	H	b	2	Incorrect	883	S
20	1	5	18	N  A  W  T  Q	H	a	2	Incorrect	904	S
20	1	5	19	N  A  W  T  Q	H	r	0	Miss	0	S
20	1	5	20	N  A  W  T  Q	H	q	1	Correct	888	S
20	1	5	21	N  A  W  T  Q	H	h	2	Incorrect	692	S
20	1	5	22	N  A  W  T  Q	H	f	2	Incorrect	872	S
20	1	5	23	N  A  W  T  Q	H	r	2	Incorrect	693	S
20	1	5	24	N  A  W  T  Q	H	w	1	Correct	514	S
20	1	5	25	N  A  W  T  Q	H	t	1	Correct	886	S
20	1	6	1	W  H  A	M	d	2	Correct	586	S
20	1	6	2	W  H  A	M	h	2	Incorrect	774	S
20	1	6	3	W  H  A	M	r	2	Correct	523	S
20	1	6	4	W  H  A	M	n	1	Incorrect	703	S
20	1	6	5	W  H  A	M	a	0	Miss	0	S
20	1	6	6	W  H  A	M	w	0	Miss	0	S
20	1	6	7	W  H  A	M	k	2	Correct	693	S
20	1	6	8	W  H  A	M	h	1	Correct	769	S
20	1	6	9	W  H  A	M	a	1	Correct	758	S
20	1	6	10	W  H  A	M	f	2	Correct	579	S
20	1	6	11	W  H  A	M	h	1	Correct	751	S
20	1	6	12	W  H  A	M	h	1	Correct	532	S
20	1	6	13	W  H  A	M	w	1	Correct	489	S
20	1	6	14	W  H  A	M	g	2	Correct	693	S
20	1	6	15	W  H  A	M	f	2	Correct	489	S
20	1	6	16	W  H  A	M	y	2	Correct	502	S
20	1	6	17	W  H  A	M	w	1	Correct	482	S
20	1	6	18	W  H  A	M	e	2	Correct	711	S
20	1	6	19	W  H  A	M	y	2	Correct	532	S
20	1	6	20	W  H  A	M	t	2	Correct	488	S
20	1	6	21	W  H  A	M	j	2	Correct	444	S
20	1	6	22	W  H  A	M	h	1	Correct	952	S
20	1	6	23	W  H  A	M	g	2	Correct	541	S
20	1	6	24	W  H  A	M	a	1	Correct	674	S
20	1	6	25	W  H  A	M	w	1	Correct	478	S
20	2	1	1	N  G  T	M	k	2	Correct	987	A
20	2	1	2	N  G  T	M	g	2	Incorrect	408	A
20	2	1	3	N  G  T	M	w	2	Correct	413	A
20	2	1	4	N  G  T	M	e	2	Correct	545	A
20	2	1	5	N  G  T	M	r	2	Correct	509	A
20	2	1	6	N  G  T	M	j	2	Correct	945	A
20	2	1	7	N  G  T	M	f	2	Correct	718	A
20	2	1	8	N  G  T	M	h	2	Correct	563	A
20	2	1	9	N  G  T	M	r	2	Correct	535	A
20	2	1	10	N  G  T	M	n	1	Correct	860	A
20	2	1	11	N  G  T	M	g	1	Correct	552	A
20	2	1	12	N  G  T	M	h	2	Correct	589	A
20	2	1	13	N  G  T	M	t	1	Correct	730	A
20	2	1	14	N  G  T	M	k	2	Correct	726	A
20	2	1	15	N  G  T	M	n	1	Correct	674	A
20	2	1	16	N  G  T	M	t	1	Correct	791	A
20	2	1	17	N  G  T	M	d	2	Correct	780	A
20	2	1	18	N  G  T	M	q	2	Correct	784	A
20	2	1	19	N  G  T	M	g	1	Correct	565	A
20	2	1	20	N  G  T	M	r	2	Correct	633	A
20	2	1	21	N  G  T	M	f	2	Correct	526	A
20	2	1	22	N  G  T	M	g	1	Correct	602	A
20	2	1	23	N  G  T	M	n	1	Correct	567	A
20	2	1	24	N  G  T	M	g	1	Correct	739	A
20	2	1	25	N  G  T	M	g	1	Correct	440	A
20	2	2	1	G	L	e	2	Correct	451	A
20	2	2	2	G	L	g	1	Correct	575	A
20	2	2	3	G	L	k	2	Correct	475	A
20	2	2	4	G	L	g	1	Correct	552	A
20	2	2	5	G	L	r	2	Correct	757	A
20	2	2	6	G	L	r	2	Correct	481	A
20	2	2	7	G	L	g	1	Correct	533	A
20	2	2	8	G	L	e	2	Correct	585	A
20	2	2	9	G	L	a	2	Correct	918	A
20	2	2	10	G	L	g	1	Correct	578	A
20	2	2	11	G	L	j	2	Correct	991	A
20	2	2	12	G	L	a	2	Correct	843	A
20	2	2	13	G	L	g	1	Correct	440	A
20	2	2	14	G	L	g	1	Correct	388	A
20	2	2	15	G	L	h	2	Correct	521	A
20	2	2	16	G	L	g	1	Correct	422	A
20	2	2	17	G	L	j	2	Correct	546	A
20	2	2	18	G	L	g	1	Correct	615	A
20	2	2	19	G	L	g	1	Correct	499	A
20	2	2	20	G	L	f	2	Correct	464	A
20	2	2	21	G	L	a	2	Correct	540	A
20	2	2	22	G	L	w	2	Correct	537	A
20	2	2	23	G	L	g	1	Correct	549	A
20	2	2	24	G	L	g	1	Correct	521	A
20	2	2	25	G	L	g	1	Correct	453	A
20	2	3	1	B	L	a	0	Miss	0	A
20	2	3	2	B	L	b	1	Correct	724	A
20	2	3	3	B	L	k	2	Correct	489	A
20	2	3	4	B	L	t	2	Correct	365	A
20	2	3	5	B	L	n	2	Correct	378	A
20	2	3	6	B	L	m	2	Correct	319	A
20	2	3	7	B	L	g	2	Correct	419	A
20	2	3	8	B	L	y	2	Correct	392	A
20	2	3	9	B	L	b	1	Correct	477	A
20	2	3	10	B	L	g	2	Correct	545	A
20	2	3	11	B	L	d	2	Correct	478	A
20	2	3	12	B	L	b	1	Correct	531	A
20	2	3	13	B	L	b	1	Correct	463	A
20	2	3	14	B	L	y	2	Correct	532	A
20	2	3	15	B	L	e	2	Correct	616	A
20	2	3	16	B	L	t	2	Correct	420	A
20	2	3	17	B	L	b	1	Correct	464	A
20	2	3	18	B	L	w	2	Correct	405	A
20	2	3	19	B	L	j	2	Correct	538	A
20	2	3	20	B	L	d	2	Correct	486	A
20	2	3	21	B	L	a	2	Correct	659	A
20	2	3	22	B	L	k	2	Correct	368	A
20	2	3	23	B	L	n	2	Correct	436	A
20	2	3	24	B	L	b	1	Correct	384	A
20	2	3	25	B	L	b	1	Correct	357	A
20	2	4	1	B  Q  A	M	u	2	Correct	823	A
20	2	4	2	B  Q  A	M	h	2	Correct	427	A
20	2	4	3	B  Q  A	M	k	2	Correct	432	A
20	2	4	4	B  Q  A	M	b	1	Correct	509	A
20	2	4	5	B  Q  A	M	u	2	Correct	529	A
20	2	4	6	B  Q  A	M	n	2	Correct	597	A
20	2	4	7	B  Q  A	M	h	2	Correct	490	A
20	2	4	8	B  Q  A	M	d	2	Correct	487	A
20	2	4	9	B  Q  A	M	b	1	Correct	443	A
20	2	4	10	B  Q  A	M	f	2	Correct	608	A
20	2	4	11	B  Q  A	M	b	1	Correct	485	A
20	2	4	12	B  Q  A	M	q	1	Correct	768	A
20	2	4	13	B  Q  A	M	w	2	Correct	492	A
20	2	4	14	B  Q  A	M	h	2	Correct	457	A
20	2	4	15	B  Q  A	M	g	2	Correct	750	A
20	2	4	16	B  Q  A	M	m	2	Correct	378	A
20	2	4	17	B  Q  A	M	r	2	Correct	406	A
20	2	4	18	B  Q  A	M	f	2	Correct	346	A
20	2	4	19	B  Q  A	M	n	2	Correct	319	A
20	2	4	20	B  Q  A	M	e	2	Correct	532	A
20	2	4	21	B  Q  A	M	b	1	Correct	504	A
20	2	4	22	B  Q  A	M	h	2	Correct	597	A
20	2	4	23	B  Q  A	M	h	2	Correct	474	A
20	2	4	24	B  Q  A	M	a	1	Correct	478	A
20	2	4	25	B  Q  A	M	a	1	Correct	386	A
20	2	5	1	B  R  U  M  K	H	m	1	Correct	956	A
20	2	5	2	B  R  U  M  K	H	w	2	Correct	641	A
20	2	5	3	B  R  U  M  K	H	j	2	Correct	653	A
20	2	5	4	B  R  U  M  K	H	n	0	Miss	0	A
20	2	5	5	B  R  U  M  K	H	h	2	Correct	679	A
20	2	5	6	B  R  U  M  K	H	m	1	Correct	651	A
20	2	5	7	B  R  U  M  K	H	d	2	Correct	751	A
20	2	5	8	B  R  U  M  K	H	j	2	Correct	523	A
20	2	5	9	B  R  U  M  K	H	u	1	Correct	608	A
20	2	5	10	B  R  U  M  K	H	d	2	Correct	605	A
20	2	5	11	B  R  U  M  K	H	d	2	Correct	681	A
20	2	5	12	B  R  U  M  K	H	b	1	Correct	558	A
20	2	5	13	B  R  U  M  K	H	d	2	Correct	738	A
20	2	5	14	B  R  U  M  K	H	u	1	Correct	599	A
20	2	5	15	B  R  U  M  K	H	b	1	Correct	540	A
20	2	5	16	B  R  U  M  K	H	j	2	Correct	544	A
20	2	5	17	B  R  U  M  K	H	t	2	Correct	741	A
20	2	5	18	B  R  U  M  K	H	t	2	Correct	490	A
20	2	5	19	B  R  U  M  K	H	n	1	Incorrect	598	A
20	2	5	20	B  R  U  M  K	H	k	0	Miss	0	A
20	2	5	21	B  R  U  M  K	H	t	2	Correct	750	A
20	2	5	22	B  R  U  M  K	H	k	1	Correct	675	A
20	2	5	23	B  R  U  M  K	H	b	1	Correct	583	A
20	2	5	24	B  R  U  M  K	H	k	1	Correct	620	A
20	2	5	25	B  R  U  M  K	H	d	2	Correct	593	A
20	2	6	1	Y  G  W  T  K	H	u	2	Correct	786	A
20	2	6	2	Y  G  W  T  K	H	q	2	Correct	711	A
20	2	6	3	Y  G  W  T  K	H	n	2	Correct	659	A
20	2	6	4	Y  G  W  T  K	H	g	1	Correct	743	A
20	2	6	5	Y  G  W  T  K	H	k	1	Correct	884	A
20	2	6	6	Y  G  W  T  K	H	y	1	Correct	744	A
20	2	6	7	Y  G  W  T  K	H	y	1	Correct	477	A
20	2	6	8	Y  G  W  T  K	H	t	1	Correct	721	A
20	2	6	9	Y  G  W  T  K	H	r	2	Correct	806	A
20	2	6	10	Y  G  W  T  K	H	e	2	Correct	850	A
20	2	6	11	Y  G  W  T  K	H	n	2	Correct	887	A
20	2	6	12	Y  G  W  T  K	H	j	2	Correct	787	A
20	2	6	13	Y  G  W  T  K	H	g	1	Correct	480	A
20	2	6	14	Y  G  W  T  K	H	j	2	Correct	964	A
20	2	6	15	Y  G  W  T  K	H	k	1	Correct	577	A
20	2	6	16	Y  G  W  T  K	H	j	2	Correct	781	A
20	2	6	17	Y  G  W  T  K	H	k	1	Correct	770	A
20	2	6	18	Y  G  W  T  K	H	w	1	Correct	534	A
20	2	6	19	Y  G  W  T  K	H	k	1	Correct	658	A
20	2	6	20	Y  G  W  T  K	H	y	1	Correct	527	A
20	2	6	21	Y  G  W  T  K	H	h	2	Correct	603	A
20	2	6	22	Y  G  W  T  K	H	k	1	Correct	592	A
20	2	6	23	Y  G  W  T  K	H	h	2	Correct	653	A
20	2	6	24	Y  G  W  T  K	H	b	2	Correct	785	A
20	2	6	25	Y  G  W  T  K	H	r	0	Miss	0	A
21	1	1	1	B	L	b	0	Miss	0	A
21	1	1	2	B	L	b	0	Miss	0	A
21	1	1	3	B	L	b	0	Miss	0	A
21	1	1	4	B	L	b	1	Correct	552	A
21	1	1	5	B	L	h	2	Correct	588	A
21	1	1	6	B	L	k	2	Correct	465	A
21	1	1	7	B	L	t	2	Correct	389	A
21	1	1	8	B	L	m	2	Correct	562	A
21	1	1	9	B	L	t	2	Correct	343	A
21	1	1	10	B	L	e	2	Correct	579	A
21	1	1	11	B	L	b	1	Correct	472	A
21	1	1	12	B	L	b	2	Incorrect	405	A
21	1	1	13	B	L	b	1	Correct	449	A
21	1	1	14	B	L	h	2	Correct	517	A
21	1	1	15	B	L	g	2	Correct	417	A
21	1	1	16	B	L	y	2	Correct	438	A
21	1	1	17	B	L	w	2	Correct	378	A
21	1	1	18	B	L	e	2	Correct	367	A
21	1	1	19	B	L	m	2	Correct	380	A
21	1	1	20	B	L	b	1	Correct	424	A
21	1	1	21	B	L	g	2	Correct	389	A
21	1	1	22	B	L	u	2	Correct	386	A
21	1	1	23	B	L	y	2	Correct	774	A
21	1	1	24	B	L	f	2	Correct	395	A
21	1	1	25	B	L	u	2	Correct	336	A
21	1	2	1	F  E  N	M	a	2	Correct	634	A
21	1	2	2	F  E  N	M	n	1	Correct	479	A
21	1	2	3	F  E  N	M	f	1	Correct	484	A
21	1	2	4	F  E  N	M	f	1	Correct	423	A
21	1	2	5	F  E  N	M	w	2	Correct	476	A
21	1	2	6	F  E  N	M	e	1	Correct	417	A
21	1	2	7	F  E  N	M	y	1	Incorrect	421	A
21	1	2	8	F  E  N	M	u	2	Correct	545	A
21	1	2	9	F  E  N	M	q	2	Correct	470	A
21	1	2	10	F  E  N	M	n	1	Correct	459	A
21	1	2	11	F  E  N	M	u	2	Correct	511	A
21	1	2	12	F  E  N	M	m	2	Correct	572	A
21	1	2	13	F  E  N	M	n	1	Correct	592	A
21	1	2	14	F  E  N	M	n	1	Correct	501	A
21	1	2	15	F  E  N	M	e	1	Correct	472	A
21	1	2	16	F  E  N	M	q	2	Correct	540	A
21	1	2	17	F  E  N	M	e	1	Correct	505	A
21	1	2	18	F  E  N	M	j	2	Correct	422	A
21	1	2	19	F  E  N	M	t	2	Correct	514	A
21	1	2	20	F  E  N	M	q	2	Correct	535	A
21	1	2	21	F  E  N	M	t	2	Correct	740	A
21	1	2	22	F  E  N	M	e	1	Correct	528	A
21	1	2	23	F  E  N	M	u	2	Correct	412	A
21	1	2	24	F  E  N	M	g	2	Correct	361	A
21	1	2	25	F  E  N	M	n	2	Incorrect	414	A
21	1	3	1	Q  E  T  R  M	H	t	0	Miss	0	A
21	1	3	2	Q  E  T  R  M	H	r	1	Correct	462	A
21	1	3	3	Q  E  T  R  M	H	a	2	Incorrect	554	A
21	1	3	4	Q  E  T  R  M	H	a	2	Incorrect	503	A
21	1	3	5	Q  E  T  R  M	H	u	2	Incorrect	507	A
21	1	3	6	Q  E  T  R  M	H	h	2	Incorrect	472	A
21	1	3	7	Q  E  T  R  M	H	w	2	Incorrect	669	A
21	1	3	8	Q  E  T  R  M	H	t	1	Correct	465	A
21	1	3	9	Q  E  T  R  M	H	j	2	Incorrect	358	A
21	1	3	10	Q  E  T  R  M	H	j	2	Incorrect	539	A
21	1	3	11	Q  E  T  R  M	H	d	2	Incorrect	559	A
21	1	3	12	Q  E  T  R  M	H	g	2	Incorrect	619	A
21	1	3	13	Q  E  T  R  M	H	d	2	Incorrect	472	A
21	1	3	14	Q  E  T  R  M	H	e	1	Correct	388	A
21	1	3	15	Q  E  T  R  M	H	f	2	Incorrect	649	A
21	1	3	16	Q  E  T  R  M	H	r	1	Correct	461	A
21	1	3	17	Q  E  T  R  M	H	q	1	Correct	657	A
21	1	3	18	Q  E  T  R  M	H	k	2	Incorrect	422	A
21	1	3	19	Q  E  T  R  M	H	n	1	Correct	586	A
21	1	3	20	Q  E  T  R  M	H	f	0	Miss	0	A
21	1	3	21	Q  E  T  R  M	H	g	2	Incorrect	444	A
21	1	3	22	Q  E  T  R  M	H	t	1	Correct	504	A
21	1	3	23	Q  E  T  R  M	H	b	2	Incorrect	532	A
21	1	3	24	Q  E  T  R  M	H	u	2	Incorrect	584	A
21	1	3	25	Q  E  T  R  M	H	r	1	Correct	780	A
21	1	4	1	Y	L	y	1	Correct	568	A
21	1	4	2	Y	L	a	2	Correct	476	A
21	1	4	3	Y	L	b	2	Correct	433	A
21	1	4	4	Y	L	n	2	Correct	398	A
21	1	4	5	Y	L	j	2	Correct	458	A
21	1	4	6	Y	L	g	2	Correct	431	A
21	1	4	7	Y	L	y	1	Correct	539	A
21	1	4	8	Y	L	f	2	Correct	384	A
21	1	4	9	Y	L	y	1	Correct	453	A
21	1	4	10	Y	L	a	2	Correct	489	A
21	1	4	11	Y	L	k	1	Incorrect	446	A
21	1	4	12	Y	L	b	2	Correct	635	A
21	1	4	13	Y	L	r	2	Correct	495	A
21	1	4	14	Y	L	d	2	Correct	356	A
21	1	4	15	Y	L	y	1	Correct	417	A
21	1	4	16	Y	L	m	2	Correct	493	A
21	1	4	17	Y	L	m	2	Correct	434	A
21	1	4	18	Y	L	w	2	Correct	447	A
21	1	4	19	Y	L	y	1	Correct	451	A
21	1	4	20	Y	L	u	2	Correct	399	A
21	1	4	21	Y	L	e	2	Correct	444	A
21	1	4	22	Y	L	r	2	Correct	424	A
21	1	4	23	Y	L	k	2	Correct	397	A
21	1	4	24	Y	L	y	1	Correct	554	A
21	1	4	25	Y	L	q	2	Correct	406	A
21	1	5	1	U  W  M  T  Q	H	w	1	Correct	674	A
21	1	5	2	U  W  M  T  Q	H	k	2	Incorrect	606	A
21	1	5	3	U  W  M  T  Q	H	a	2	Incorrect	499	A
21	1	5	4	U  W  M  T  Q	H	k	2	Incorrect	464	A
21	1	5	5	U  W  M  T  Q	H	j	2	Incorrect	604	A
21	1	5	6	U  W  M  T  Q	H	q	1	Correct	504	A
21	1	5	7	U  W  M  T  Q	H	j	2	Incorrect	532	A
21	1	5	8	U  W  M  T  Q	H	g	2	Incorrect	617	A
21	1	5	9	U  W  M  T  Q	H	u	1	Correct	437	A
21	1	5	10	U  W  M  T  Q	H	n	0	Miss	0	A
21	1	5	11	U  W  M  T  Q	H	y	2	Incorrect	647	A
21	1	5	12	U  W  M  T  Q	H	f	2	Incorrect	451	A
21	1	5	13	U  W  M  T  Q	H	m	1	Correct	679	A
21	1	5	14	U  W  M  T  Q	H	y	2	Incorrect	876	A
21	1	5	15	U  W  M  T  Q	H	m	1	Correct	633	A
21	1	5	16	U  W  M  T  Q	H	g	2	Incorrect	597	A
21	1	5	17	U  W  M  T  Q	H	k	2	Incorrect	642	A
21	1	5	18	U  W  M  T  Q	H	b	2	Incorrect	495	A
21	1	5	19	U  W  M  T  Q	H	t	1	Correct	443	A
21	1	5	20	U  W  M  T  Q	H	t	1	Correct	431	A
21	1	5	21	U  W  M  T  Q	H	w	1	Correct	468	A
21	1	5	22	U  W  M  T  Q	H	w	1	Correct	368	A
21	1	5	23	U  W  M  T  Q	H	b	2	Incorrect	532	A
21	1	5	24	U  W  M  T  Q	H	b	2	Incorrect	552	A
21	1	5	25	U  W  M  T  Q	H	e	1	Correct	581	A
21	1	6	1	W  F  D	M	d	1	Correct	536	A
21	1	6	2	W  F  D	M	w	1	Correct	421	A
21	1	6	3	W  F  D	M	m	2	Correct	417	A
21	1	6	4	W  F  D	M	u	2	Correct	430	A
21	1	6	5	W  F  D	M	f	2	Incorrect	386	A
21	1	6	6	W  F  D	M	r	2	Correct	575	A
21	1	6	7	W  F  D	M	w	1	Correct	459	A
21	1	6	8	W  F  D	M	q	1	Incorrect	663	A
21	1	6	9	W  F  D	M	w	1	Correct	524	A
21	1	6	10	W  F  D	M	d	1	Correct	705	A
21	1	6	11	W  F  D	M	g	2	Correct	525	A
21	1	6	12	W  F  D	M	d	1	Correct	569	A
21	1	6	13	W  F  D	M	e	2	Correct	542	A
21	1	6	14	W  F  D	M	m	2	Correct	539	A
21	1	6	15	W  F  D	M	w	1	Correct	575	A
21	1	6	16	W  F  D	M	b	2	Correct	643	A
21	1	6	17	W  F  D	M	d	1	Correct	560	A
21	1	6	18	W  F  D	M	d	1	Correct	581	A
21	1	6	19	W  F  D	M	d	1	Correct	529	A
21	1	6	20	W  F  D	M	k	2	Correct	572	A
21	1	6	21	W  F  D	M	q	1	Incorrect	705	A
21	1	6	22	W  F  D	M	y	2	Correct	606	A
21	1	6	23	W  F  D	M	j	2	Correct	450	A
21	1	6	24	W  F  D	M	a	2	Correct	367	A
21	1	6	25	W  F  D	M	a	2	Correct	396	A
21	2	1	1	E  T  J	M	e	1	Correct	528	S
21	2	1	2	E  T  J	M	g	2	Correct	460	S
21	2	1	3	E  T  J	M	e	1	Correct	385	S
21	2	1	4	E  T  J	M	j	1	Correct	766	S
21	2	1	5	E  T  J	M	t	1	Correct	442	S
21	2	1	6	E  T  J	M	t	1	Correct	495	S
21	2	1	7	E  T  J	M	e	1	Correct	379	S
21	2	1	8	E  T  J	M	r	2	Correct	584	S
21	2	1	9	E  T  J	M	t	1	Correct	605	S
21	2	1	10	E  T  J	M	t	1	Correct	441	S
21	2	1	11	E  T  J	M	t	1	Correct	390	S
21	2	1	12	E  T  J	M	e	1	Correct	370	S
21	2	1	13	E  T  J	M	e	1	Correct	343	S
21	2	1	14	E  T  J	M	w	2	Correct	547	S
21	2	1	15	E  T  J	M	b	2	Correct	768	S
21	2	1	16	E  T  J	M	u	2	Correct	709	S
21	2	1	17	E  T  J	M	b	0	Miss	0	S
21	2	1	18	E  T  J	M	k	2	Correct	382	S
21	2	1	19	E  T  J	M	j	1	Correct	466	S
21	2	1	20	E  T  J	M	q	2	Correct	911	S
21	2	1	21	E  T  J	M	w	2	Correct	396	S
21	2	1	22	E  T  J	M	h	2	Correct	440	S
21	2	1	23	E  T  J	M	e	1	Correct	420	S
21	2	1	24	E  T  J	M	e	1	Correct	416	S
21	2	1	25	E  T  J	M	m	2	Correct	565	S
21	2	2	1	Y	L	y	1	Correct	448	S
21	2	2	2	Y	L	a	2	Correct	444	S
21	2	2	3	Y	L	b	2	Correct	416	S
21	2	2	4	Y	L	y	1	Correct	381	S
21	2	2	5	Y	L	m	2	Correct	394	S
21	2	2	6	Y	L	y	1	Correct	390	S
21	2	2	7	Y	L	y	1	Correct	379	S
21	2	2	8	Y	L	r	2	Correct	519	S
21	2	2	9	Y	L	r	2	Correct	436	S
21	2	2	10	Y	L	u	2	Correct	393	S
21	2	2	11	Y	L	y	1	Correct	461	S
21	2	2	12	Y	L	y	1	Correct	417	S
21	2	2	13	Y	L	h	2	Correct	398	S
21	2	2	14	Y	L	w	2	Correct	507	S
21	2	2	15	Y	L	k	2	Correct	455	S
21	2	2	16	Y	L	h	2	Correct	476	S
21	2	2	17	Y	L	n	2	Correct	416	S
21	2	2	18	Y	L	d	2	Correct	413	S
21	2	2	19	Y	L	y	1	Correct	448	S
21	2	2	20	Y	L	f	2	Correct	381	S
21	2	2	21	Y	L	y	1	Correct	298	S
21	2	2	22	Y	L	u	2	Correct	358	S
21	2	2	23	Y	L	b	2	Correct	379	S
21	2	2	24	Y	L	y	1	Correct	336	S
21	2	2	25	Y	L	y	1	Correct	436	S
21	2	3	1	K  B  G  R  Q	H	t	2	Correct	552	S
21	2	3	2	K  B  G  R  Q	H	k	1	Correct	316	S
21	2	3	3	K  B  G  R  Q	H	q	1	Correct	680	S
21	2	3	4	K  B  G  R  Q	H	j	2	Correct	917	S
21	2	3	5	K  B  G  R  Q	H	t	2	Correct	425	S
21	2	3	6	K  B  G  R  Q	H	e	2	Correct	574	S
21	2	3	7	K  B  G  R  Q	H	q	1	Correct	722	S
21	2	3	8	K  B  G  R  Q	H	k	2	Incorrect	679	S
21	2	3	9	K  B  G  R  Q	H	q	1	Correct	643	S
21	2	3	10	K  B  G  R  Q	H	h	2	Correct	664	S
21	2	3	11	K  B  G  R  Q	H	w	2	Correct	549	S
21	2	3	12	K  B  G  R  Q	H	t	2	Correct	505	S
21	2	3	13	K  B  G  R  Q	H	a	2	Correct	462	S
21	2	3	14	K  B  G  R  Q	H	q	1	Correct	611	S
21	2	3	15	K  B  G  R  Q	H	h	2	Correct	519	S
21	2	3	16	K  B  G  R  Q	H	f	2	Correct	491	S
21	2	3	17	K  B  G  R  Q	H	q	1	Correct	488	S
21	2	3	18	K  B  G  R  Q	H	k	1	Correct	477	S
21	2	3	19	K  B  G  R  Q	H	d	2	Correct	561	S
21	2	3	20	K  B  G  R  Q	H	u	2	Correct	438	S
21	2	3	21	K  B  G  R  Q	H	g	1	Correct	650	S
21	2	3	22	K  B  G  R  Q	H	e	2	Correct	598	S
21	2	3	23	K  B  G  R  Q	H	m	2	Correct	587	S
21	2	3	24	K  B  G  R  Q	H	e	2	Correct	560	S
21	2	3	25	K  B  G  R  Q	H	d	2	Correct	740	S
21	2	4	1	J  E  M	M	m	1	Correct	688	S
21	2	4	2	J  E  M	M	g	2	Correct	636	S
21	2	4	3	J  E  M	M	e	1	Correct	369	S
21	2	4	4	J  E  M	M	d	2	Correct	430	S
21	2	4	5	J  E  M	M	f	2	Correct	458	S
21	2	4	6	J  E  M	M	e	1	Correct	463	S
21	2	4	7	J  E  M	M	g	2	Correct	620	S
21	2	4	8	J  E  M	M	h	2	Correct	664	S
21	2	4	9	J  E  M	M	j	2	Incorrect	389	S
21	2	4	10	J  E  M	M	m	1	Correct	442	S
21	2	4	11	J  E  M	M	g	2	Correct	542	S
21	2	4	12	J  E  M	M	j	1	Correct	402	S
21	2	4	13	J  E  M	M	u	2	Correct	463	S
21	2	4	14	J  E  M	M	e	1	Correct	435	S
21	2	4	15	J  E  M	M	d	2	Correct	583	S
21	2	4	16	J  E  M	M	t	2	Correct	724	S
21	2	4	17	J  E  M	M	q	2	Correct	705	S
21	2	4	18	J  E  M	M	f	2	Correct	541	S
21	2	4	19	J  E  M	M	e	1	Correct	458	S
21	2	4	20	J  E  M	M	b	2	Correct	439	S
21	2	4	21	J  E  M	M	y	2	Correct	619	S
21	2	4	22	J  E  M	M	e	1	Correct	496	S
21	2	4	23	J  E  M	M	d	2	Correct	500	S
21	2	4	24	J  E  M	M	q	2	Correct	577	S
21	2	4	25	J  E  M	M	j	1	Correct	454	S
21	2	5	1	D  Q  G  U  B	H	g	1	Correct	553	S
21	2	5	2	D  Q  G  U  B	H	k	2	Correct	486	S
21	2	5	3	D  Q  G  U  B	H	d	0	Miss	0	S
21	2	5	4	D  Q  G  U  B	H	f	2	Correct	623	S
21	2	5	5	D  Q  G  U  B	H	e	2	Correct	812	S
21	2	5	6	D  Q  G  U  B	H	f	2	Correct	728	S
21	2	5	7	D  Q  G  U  B	H	d	1	Correct	516	S
21	2	5	8	D  Q  G  U  B	H	n	2	Correct	520	S
21	2	5	9	D  Q  G  U  B	H	u	0	Miss	0	S
21	2	5	10	D  Q  G  U  B	H	f	2	Correct	426	S
21	2	5	11	D  Q  G  U  B	H	q	1	Correct	838	S
21	2	5	12	D  Q  G  U  B	H	f	2	Correct	729	S
21	2	5	13	D  Q  G  U  B	H	u	1	Correct	342	S
